Text,thisN,thisTrialN,thisRepN,BJW_slider.response,BJW_slider.rt,BJW_slider.history,w1,w2,corr_answ,op1,op2,xPos1,yPos1,xPos2,yPos2,or1,or2,time,resp_tren.keys,resp_tren.corr,resp_tren.rt,resp_tren.duration,resp.keys,resp.corr,resp.rt,resp.duration,q_sl,sl_h.response,sl_h.rt,sl_h.history,BJW_trials.thisRepN,BJW_trials.thisTrialN,BJW_trials.thisN,BJW_trials.thisIndex,trials.thisRepN,trials.thisTrialN,trials.thisN,trials.thisIndex,loop_L.thisRepN,loop_L.thisTrialN,loop_L.thisN,loop_L.thisIndex,l_slid.thisRepN,l_slid.thisTrialN,l_slid.thisN,l_slid.thisIndex,thisRow.t,notes,Main_instr.started,main_instr_text.started,main_instr_key.started,Main_instr.stopped,main_instr_key.keys,main_instr_key.rt,main_instr_key.duration,instr_BJW.started,BJW_inst_text.started,BJW_key_resp.started,instr_BJW.stopped,BJW_key_resp.keys,BJW_key_resp.rt,BJW_key_resp.duration,BJW.started,BJW_text.started,BJW.stopped,BJW_trials.BJW_slider.response,BJW_trials.BJW_slider.rt,BJW_trials.BJW_slider.history,instr.started,instr.stopped,resp_instr.keys,resp_instr.rt,resp_instr.duration,instr_2.started,text_3.started,key_resp.started,instr_2.stopped,key_resp.keys,key_resp.rt,key_resp.duration,tren.started,pol_1.started,pol_2.started,text_tren.started,tren.stopped,trials.resp_tren.keys,trials.resp_tren.corr,trials.resp_tren.rt,trials.resp_tren.duration,fb_tren.started,text_fb_tren.started,fb_tren.stopped,text_fb_tren.stopped,instr3.started,instr3.stopped,reesp_instr.keys,reesp_instr.rt,reesp_instr.duration,task_L.started,resp.started,task_L.stopped,loop_L.resp.keys,loop_L.resp.corr,loop_L.resp.rt,loop_L.resp.duration,fb_task.started,fb_task.stopped,corr_sum,mean_rt,sd_rt,resp.stopped,slider.started,sl_h.started,text_sl.started,slider.stopped,l_slid.sl_h.response,l_slid.sl_h.rt,l_slid.sl_h.history,fin_sum.started,text_5.started,key_resp_2.started,text_5.stopped,key_resp_2.stopped,fin_sum.stopped,key_resp_2.keys,Get_points.started,textbox.started,Get_points.stopped,textbox.text,thanks.started,text_th.started,thanks.stopped,name,gender,ag,date,expName,expVersion,psychopyVersion,frameRate,expStart,
,,,,,,,,,,,,,,,,,,,,,,,,,,,,,,,,,,,,,,,,,,,,,,,,,0.011208417010493577,0.020197875041048974,0.020197875041048974,0.8425037499982864,space,0.7903929159510881,None,,,,,,,,,,,,,,,,,,,,,,,,,,,,,,,,,,,,,,,,,,,,,,,,,,,,,,,,,,,,,,,,,,,,,,,,,,,,,,,,,2025-12-30_18h56.49.811,4_calibr_sum,,2025.1.1,None,2025-12-30 18h56.56.500057 +0400,
,,,,,,,,,,,,,,,,,,,,,,,,,,,,,,,,,,,,,,,,,,,,,,,,,,,,,,,,0.842567500018049,0.8642176249995828,0.8642176249995828,0.9384749170276336,space,0.07082504098070785,None,,,,,,,,,,,,,,,,,,,,,,,,,,,,,,,,,,,,,,,,,,,,,,,,,,,,,,,,,,,,,,,,,,,,,,,,,,2025-12-30_18h56.49.811,4_calibr_sum,,2025.1.1,None,2025-12-30 18h56.56.500057 +0400,
"Я считаю, что, по большому счету, заслуживаю того, что происходит со мной.",0,0,0,3.0,0.6156146670109592,"[(3.0, 0.6156146670109592)]",,,,,,,,,,,,,,,,,,,,,,,,,0,0,0,0,,,,,,,,,,,,,0.9824443330289796,,,,,,,,,,,,,,,,0.9548424580134451,0.9824443330289796,1.5709123330307193,3.0,0.6156146670109592,"[(3.0, 0.6156146670109592)]",,,,,,,,,,,,,,,,,,,,,,,,,,,,,,,,,,,,,,,,,,,,,,,,,,,,,,,,,,,,,,,,,,,,2025-12-30_18h56.49.811,4_calibr_sum,,2025.1.1,None,2025-12-30 18h56.56.500057 +0400,
"Как правило, жизнь ко мне справедлива.",1,1,0,3.0,0.12463920802110806,"[(3.0, 0.12463920802110806)]",,,,,,,,,,,,,,,,,,,,,,,,,0,1,1,1,,,,,,,,,,,,,1.6311046250048093,,,,,,,,,,,,,,,,1.6211978750070557,1.6311046250048093,1.703440458048135,3.0,0.12463920802110806,"[(3.0, 0.12463920802110806)]",,,,,,,,,,,,,,,,,,,,,,,,,,,,,,,,,,,,,,,,,,,,,,,,,,,,,,,,,,,,,,,,,,,,2025-12-30_18h56.49.811,4_calibr_sum,,2025.1.1,None,2025-12-30 18h56.56.500057 +0400,
"Я верю, что обычно получаю то, что заслуживаю.",2,2,0,3.0,0.08279587503056973,"[(3.0, 0.08279587503056973)]",,,,,,,,,,,,,,,,,,,,,,,,,0,2,2,2,,,,,,,,,,,,,1.7129118330194615,,,,,,,,,,,,,,,,1.7052108750212938,1.7129118330194615,1.795514292025473,3.0,0.08279587503056973,"[(3.0, 0.08279587503056973)]",,,,,,,,,,,,,,,,,,,,,,,,,,,,,,,,,,,,,,,,,,,,,,,,,,,,,,,,,,,,,,,,,,,,2025-12-30_18h56.49.811,4_calibr_sum,,2025.1.1,None,2025-12-30 18h56.56.500057 +0400,
В моей жизни в общем и целом всё происходит справедливо.,3,3,0,3.0,0.18319237499963492,"[(3.0, 0.18319237499963492)]",,,,,,,,,,,,,,,,,,,,,,,,,0,3,3,3,,,,,,,,,,,,,1.805851833021734,,,,,,,,,,,,,,,,1.7981334580108523,1.805851833021734,1.986167250026483,3.0,0.18319237499963492,"[(3.0, 0.18319237499963492)]",,,,,,,,,,,,,,,,,,,,,,,,,,,,,,,,,,,,,,,,,,,,,,,,,,,,,,,,,,,,,,,,,,,,2025-12-30_18h56.49.811,4_calibr_sum,,2025.1.1,None,2025-12-30 18h56.56.500057 +0400,
"В моей жизни несправедливость – скорее исключение, чем правило.",4,4,0,3.0,0.12693504098569974,"[(3.0, 0.12693504098569974)]",,,,,,,,,,,,,,,,,,,,,,,,,0,4,4,4,,,,,,,,,,,,,1.9963037500274368,,,,,,,,,,,,,,,,1.9884220420499332,1.9963037500274368,2.120694708020892,3.0,0.12693504098569974,"[(3.0, 0.12693504098569974)]",,,,,,,,,,,,,,,,,,,,,,,,,,,,,,,,,,,,,,,,,,,,,,,,,,,,,,,,,,,,,,,,,,,,2025-12-30_18h56.49.811,4_calibr_sum,,2025.1.1,None,2025-12-30 18h56.56.500057 +0400,
"Я считаю, что в целом в моей жизни всё справедливо.",5,5,0,3.0,0.11584749998291954,"[(3.0, 0.11584749998291954)]",,,,,,,,,,,,,,,,,,,,,,,,,0,5,5,5,,,,,,,,,,,,,2.1301889170426875,,,,,,,,,,,,,,,,2.1223213330376893,2.1301889170426875,2.2463717920472845,3.0,0.11584749998291954,"[(3.0, 0.11584749998291954)]",,,,,,,,,,,,,,,,,,,,,,,,,,,,,,,,,,,,,,,,,,,,,,,,,,,,,,,,,,,,,,,,,,,,2025-12-30_18h56.49.811,4_calibr_sum,,2025.1.1,None,2025-12-30 18h56.56.500057 +0400,
"Я думаю, что важные решения, которые касаются меня, обычно справедливы.",6,6,0,3.0,0.12395874998765066,"[(3.0, 0.12395874998765066)]",,,,,,,,,,,,,,,,,,,,,,,,,0,6,6,6,,,,,,,,,,,,,2.2572685420163907,,,,,,,,,,,,,,,,2.248844832996838,2.2572685420163907,2.379374750016723,3.0,0.12395874998765066,"[(3.0, 0.12395874998765066)]",,,,,,,,,,,,,,,,,,,,,,,,,,,,,,,,,,,,,,,,,,,,,,,,,,,,,,,,,,,,,,,,,,,,2025-12-30_18h56.49.811,4_calibr_sum,,2025.1.1,None,2025-12-30 18h56.56.500057 +0400,
"Я считаю, что в целом мир справедлив.",7,7,0,3.0,0.13393987499875948,"[(3.0, 0.13393987499875948)]",,,,,,,,,,,,,,,,,,,,,,,,,0,7,7,7,,,,,,,,,,,,,2.388289624999743,,,,,,,,,,,,,,,,2.380859667027835,2.388289624999743,2.5207940420368686,3.0,0.13393987499875948,"[(3.0, 0.13393987499875948)]",,,,,,,,,,,,,,,,,,,,,,,,,,,,,,,,,,,,,,,,,,,,,,,,,,,,,,,,,,,,,,,,,,,,2025-12-30_18h56.49.811,4_calibr_sum,,2025.1.1,None,2025-12-30 18h56.56.500057 +0400,
"Я считаю, что, по большому счету, люди получают то, что заслуживают.",8,8,0,3.0,0.13289549999171868,"[(3.0, 0.13289549999171868)]",,,,,,,,,,,,,,,,,,,,,,,,,0,8,8,8,,,,,,,,,,,,,2.5293651249958202,,,,,,,,,,,,,,,,2.522649458027445,2.5293651249958202,2.6628209170303307,3.0,0.13289549999171868,"[(3.0, 0.13289549999171868)]",,,,,,,,,,,,,,,,,,,,,,,,,,,,,,,,,,,,,,,,,,,,,,,,,,,,,,,,,,,,,,,,,,,,2025-12-30_18h56.49.811,4_calibr_sum,,2025.1.1,None,2025-12-30 18h56.56.500057 +0400,
"Я уверен, что справедливость всегда побеждает несправедливость.",9,9,0,3.0,0.09960620803758502,"[(3.0, 0.09960620803758502)]",,,,,,,,,,,,,,,,,,,,,,,,,0,9,9,9,,,,,,,,,,,,,2.6717559170210734,,,,,,,,,,,,,,,,2.664500458049588,2.6717559170210734,2.769847292045597,3.0,0.09960620803758502,"[(3.0, 0.09960620803758502)]",,,,,,,,,,,,,,,,,,,,,,,,,,,,,,,,,,,,,,,,,,,,,,,,,,,,,,,,,,,,,,,,,,,,2025-12-30_18h56.49.811,4_calibr_sum,,2025.1.1,None,2025-12-30 18h56.56.500057 +0400,
"Я убежден, что, если человек пережил несправедливость, в будущем это возместится.",10,10,0,3.0,0.11620791698805988,"[(3.0, 0.11620791698805988)]",,,,,,,,,,,,,,,,,,,,,,,,,0,10,10,10,,,,,,,,,,,,,2.779629292024765,,,,,,,,,,,,,,,,2.7723412920022383,2.779629292024765,2.8957013330073096,3.0,0.11620791698805988,"[(3.0, 0.11620791698805988)]",,,,,,,,,,,,,,,,,,,,,,,,,,,,,,,,,,,,,,,,,,,,,,,,,,,,,,,,,,,,,,,,,,,,2025-12-30_18h56.49.811,4_calibr_sum,,2025.1.1,None,2025-12-30 18h56.56.500057 +0400,
"Я твердо уверен, что несправедливость в самых разных жизненных ситуациях (в семье, учебе и т. д.) – скорее исключение, чем правило.",11,11,0,3.0,0.1187970419996418,"[(3.0, 0.1187970419996418)]",,,,,,,,,,,,,,,,,,,,,,,,,0,11,11,11,,,,,,,,,,,,,2.9068065830506384,,,,,,,,,,,,,,,,2.8986922920448706,2.9068065830506384,3.0231347920489497,3.0,0.1187970419996418,"[(3.0, 0.1187970419996418)]",,,,,,,,,,,,,,,,,,,,,,,,,,,,,,,,,,,,,,,,,,,,,,,,,,,,,,,,,,,,,,,,,,,,2025-12-30_18h56.49.811,4_calibr_sum,,2025.1.1,None,2025-12-30 18h56.56.500057 +0400,
"Я думаю, что все, кто принимает важные решения, стремятся быть справедливыми.",12,12,0,3.0,0.12429887498728931,"[(3.0, 0.12429887498728931)]",,,,,,,,,,,,,,,,,,,,,,,,,0,12,12,12,,,,,,,,,,,,,3.0330303329974413,,,,,,,,,,,,,,,,3.025253542000428,3.0330303329974413,3.1572147920378484,3.0,0.12429887498728931,"[(3.0, 0.12429887498728931)]",,,,,,,,,,,,,,,,,,,,,,,,,,,,,,,,,,,,,,,,,,,,,,,,,,,,,,,,,,,,,,,,,,,,2025-12-30_18h56.49.811,4_calibr_sum,,2025.1.1,None,2025-12-30 18h56.56.500057 +0400,
,,,,,,,,,,,,,,,,,,,,,,,,,,,,,,,,,,,,,,,,,,,,,,,,,,,,,,,,,,,,,,,,,,,,,3.157287583046127,3.680960333032999,space,0.5087255000253208,None,,,,,,,,,,,,,,,,,,,,,,,,,,,,,,,,,,,,,,,,,,,,,,,,,,,,,,,,,,,,,,,2025-12-30_18h56.49.811,4_calibr_sum,,2025.1.1,None,2025-12-30 18h56.56.500057 +0400,
,,,,,,,,,,,,,,,,,,,,,,,,,,,,,,,,,,,,,,,,,,,,,,,,,,,,,,,,,,,,,,,,,,,,,,,,,,3.6809955420321785,3.689199707994703,3.689199707994703,4.133771374996286,space,0.43574241700116545,None,,,,,,,,,,,,,,,,,,,,,,,,,,,,,,,,,,,,,,,,,,,,,,,,,,,,,,,,2025-12-30_18h56.49.811,4_calibr_sum,,2025.1.1,None,2025-12-30 18h56.56.500057 +0400,
,0,0,0,,,,0.28,0.27,left,0.13,0.85,-0.18,-0.22,0.18,0.18,5,45,1.5,right,0,0.836169709044043,None,,,,,,,,,,,,,0,0,0,5,,,,,,,,,4.157518042018637,,,,,,,,,,,,,,,,,,,,,,,,,,,,,,,,,,4.143238250049762,4.157518042018637,4.157518042018637,4.157518042018637,4.982547292020172,right,0,0.836169709044043,None,4.985767208039761,5.0261817080318,5.487583750043996,,,,,,,,,,,,,,,,,,,,,,,,,,,,,,,,,,,,,,,,,,,,2025-12-30_18h56.49.811,4_calibr_sum,,2025.1.1,None,2025-12-30 18h56.56.500057 +0400,
,1,1,0,,,,0.24,0.25,right,0.13,0.85,-0.3,-0.2,0.3,0.2,0,45,1.5,right,1,0.06056970899226144,None,,,,,,,,,,,,,0,1,1,6,,,,,,,,,5.497845250007231,,,,,,,,,,,,,,,,,,,,,,,,,,,,,,,,,,5.488223874999676,5.497845250007231,5.497845250007231,5.497845250007231,5.557220833026804,right,1,0.06056970899226144,None,5.55973412503954,5.568870792048983,6.0553627500194125,6.064775542006828,,,,,,,,,,,,,,,,,,,,,,,,,,,,,,,,,,,,,,,,,,,2025-12-30_18h56.49.811,4_calibr_sum,,2025.1.1,None,2025-12-30 18h56.56.500057 +0400,
,2,2,0,,,,0.16,0.15,left,0.17,0.7,-0.3,-0.22,0.3,0.18,6,47,1.0,right,0,0.008308499993290752,None,,,,,,,,,,,,,0,2,2,1,,,,,,,,,6.064775542006828,,,,,,,,,,,,,,,,,,,,,,,,,,,,,,,,,,6.056106625008397,6.064775542006828,6.064775542006828,6.064775542006828,6.075642250012606,right,0,0.008308499993290752,None,6.077285667008255,6.085834583034739,6.581428750010673,,,,,,,,,,,,,,,,,,,,,,,,,,,,,,,,,,,,,,,,,,,,2025-12-30_18h56.49.811,4_calibr_sum,,2025.1.1,None,2025-12-30 18h56.56.500057 +0400,
,3,3,0,,,,0.17,0.16,left,0.3,0.18,-0.3,-0.2,0.3,0.2,5,45,1.0,right,0,-0.0018363340059295297,None,,,,,,,,,,,,,0,3,3,2,,,,,,,,,6.597658417013008,,,,,,,,,,,,,,,,,,,,,,,,,,,,,,,,,,6.582634458027314,6.597658417013008,6.597658417013008,6.597658417013008,6.5854324999963865,right,0,-0.0018363340059295297,None,6.585531542019453,6.597658417013008,7.081882625003345,7.091441625030711,,,,,,,,,,,,,,,,,,,,,,,,,,,,,,,,,,,,,,,,,,,2025-12-30_18h56.49.811,4_calibr_sum,,2025.1.1,None,2025-12-30 18h56.56.500057 +0400,
,4,4,0,,,,0.21,0.22,right,0.54,0.22,-0.2,0.21,0.2,0.18,37,7,1.5,right,1,0.03814691596198827,None,,,,,,,,,,,,,0,4,4,3,,,,,,,,,7.091441625030711,,,,,,,,,,,,,,,,,,,,,,,,,,,,,,,,,,7.083034375042189,7.091441625030711,7.091441625030711,7.091441625030711,7.131879332999233,right,1,0.03814691596198827,None,7.134585208026692,7.1421992080286145,7.6322114579961635,7.642615958000533,,,,,,,,,,,,,,,,,,,,,,,,,,,,,,,,,,,,,,,,,,,2025-12-30_18h56.49.811,4_calibr_sum,,2025.1.1,None,2025-12-30 18h56.56.500057 +0400,
,5,5,0,,,,0.22,0.21,left,0.17,0.8,-0.18,-0.22,0.18,0.18,45,5,1.0,right,0,0.04602158395573497,None,,,,,,,,,,,,,0,5,5,0,,,,,,,,,7.642615958000533,,,,,,,,,,,,,,,,,,,,,,,,,,,,,,,,,,7.6333342080470175,7.642615958000533,7.642615958000533,7.642615958000533,7.683967792021576,right,0,0.04602158395573497,None,7.68551020801533,7.693425208039116,8.181281750032213,8.19102816702798,,,,,,,,,,,,,,,,,,,,,,,,,,,,,,,,,,,,,,,,,,,2025-12-30_18h56.49.811,4_calibr_sum,,2025.1.1,None,2025-12-30 18h56.56.500057 +0400,
,6,6,0,,,,0.22,0.23,right,0.15,0.5,-0.2,0.15,0.2,-0.18,45,3,1.5,right,1,0.06232495896983892,None,,,,,,,,,,,,,0,6,6,4,,,,,,,,,8.19102816702798,,,,,,,,,,,,,,,,,,,,,,,,,,,,,,,,,,8.182289125048555,8.19102816702798,8.19102816702798,8.19102816702798,8.255447250034194,right,1,0.06232495896983892,None,8.257808042049874,8.265623667044565,8.764323292009067,,,,,,,,,,,,,,,,,,,,,,,,,,,,,,,,,,,,,,,,,,,,2025-12-30_18h56.49.811,4_calibr_sum,,2025.1.1,None,2025-12-30 18h56.56.500057 +0400,
,,,,,,,,,,,,,,,,,,,,,,,,,,,,,,,,,,,,,,,,,,,,,,,,,,,,,,,,,,,,,,,,,,,,,,,,,,,,,,,,,,,,,,,,,,,,,,8.764508875028696,13.756694667041302,space,4.985778083966579,None,,,,,,,,,,,,,,,,,,,,,,,,,,,,,,,,,,,,,,2025-12-30_18h56.49.811,4_calibr_sum,,2025.1.1,None,2025-12-30 18h56.56.500057 +0400,
,0,0,0,,,,0.26,0.25,left,0.25,0.25,-0.18,0.21,0.18,0.18,3,45,1.5,,,,,right,0,0.7648830000543967,None,,,,,,,,,,,,,0,0,0,37,,,,,13.787785708031151,,,,,,,,,,,,,,,,,,,,,,,,,,,,,,,,,,,,,,,,,,,,,,,,,,,,13.774657542002387,13.787785708031151,14.556347292033024,right,0,0.7648830000543967,None,14.561007708020043,14.85480287502287,0,0.7648830000543967,0.0,,,,,,,,,,,,,,,,,,,,,,,,,,2025-12-30_18h56.49.811,4_calibr_sum,,2025.1.1,None,2025-12-30 18h56.56.500057 +0400,
,1,1,0,,,,0.21,0.2,left,0.16,0.7,-0.18,0.15,0.18,-0.18,5,45,1.0,,,,,right,0,0.2654552499880083,None,,,,,,,,,,,,,0,1,1,18,,,,,14.865940542018507,,,,,,,,,,,,,,,,,,,,,,,,,,,,,,,,,,,,,,,,,,,,,,,,,,,,14.855960667016916,14.865940542018507,15.133769958047196,right,0,0.2654552499880083,None,15.133863958006259,15.43099683301989,0,0.5151691250212025,0.2497138750331942,,,,,,,,,,,,,,,,,,,,,,,,,,2025-12-30_18h56.49.811,4_calibr_sum,,2025.1.1,None,2025-12-30 18h56.56.500057 +0400,
,2,2,0,,,,0.23,0.22,left,0.6,0.15,-0.18,-0.2,0.18,0.2,30,15,1.5,,,,,right,0,0.24614987499080598,None,,,,,,,,,,,,,0,2,2,39,,,,,15.440478417032864,,,,,,,,,,,,,,,,,,,,,,,,,,,,,,,,,,,,,,,,,,,,,,,,,,,,15.431873749999795,15.440478417032864,15.691062792029697,right,0,0.24614987499080598,None,15.691249500028789,15.998143375036307,0,0.42549604167773697,0.24011220295668173,,,,,,,,,,,,,,,,,,,,,,,,,,2025-12-30_18h56.49.811,4_calibr_sum,,2025.1.1,None,2025-12-30 18h56.56.500057 +0400,
,3,3,0,,,,0.14,0.13,left,0.15,0.5,-0.3,0.21,0.3,0.18,45,5,0.5,,,,,None,0,,,,,,,,,,,,,,,0,3,3,0,,,,,16.008796792011708,,,,,,,,,,,,,,,,,,,,,,,,,,,,,,,,,,,,,,,,,,,,,,,,,,,,15.999181625025813,16.008796792011708,16.49751037504757,None,0,,,16.503355625027325,16.797117417037953,0,0.42549604167773697,0.24011220295668173,16.51061220804695,,,,,,,,,,,,,,,,,,,,,,,,,2025-12-30_18h56.49.811,4_calibr_sum,,2025.1.1,None,2025-12-30 18h56.56.500057 +0400,
,4,4,0,,,,0.15,0.16,right,0.48,0.15,-0.2,0.21,0.2,0.18,9,25,0.7,,,,,right,1,0.5062413749983534,None,,,,,,,,,,,,,0,4,4,5,,,,,16.806043457996566,,,,,,,,,,,,,,,,,,,,,,,,,,,,,,,,,,,,,,,,,,,,,,,,,,,,16.79782429203624,16.806043457996566,17.315224083024077,right,1,0.5062413749983534,None,17.318895208009053,17.614926750015,1,0.4456823750078911,0.21086219828713088,,,,,,,,,,,,,,,,,,,,,,,,,,2025-12-30_18h56.49.811,4_calibr_sum,,2025.1.1,None,2025-12-30 18h56.56.500057 +0400,
,5,5,0,,,,0.18,0.19,left,0.4,0.19,-0.3,0.2,0.3,-0.2,45,5,1.5,,,,,None,0,,,,,,,,,,,,,,,0,5,5,31,,,,,17.62383229203988,,,,,,,,,,,,,,,,,,,,,,,,,,,,,,,,,,,,,,,,,,,,,,,,,,,,17.616281250026077,17.62383229203988,19.106733874999918,None,0,,,19.109457083046436,19.404911582998466,1,0.4456823750078911,0.21086219828713088,19.116516417008825,,,,,,,,,,,,,,,,,,,,,,,,,2025-12-30_18h56.49.811,4_calibr_sum,,2025.1.1,None,2025-12-30 18h56.56.500057 +0400,
,6,6,0,,,,0.22,0.23,right,0.15,0.5,-0.2,0.15,0.2,-0.18,45,3,1.5,,,,,right,1,1.1872241249657236,None,,,,,,,,,,,,,0,6,6,23,,,,,19.415651625022292,,,,,,,,,,,,,,,,,,,,,,,,,,,,,,,,,,,,,,,,,,,,,,,,,,,,19.405992250016425,19.415651625022292,20.607493000046816,right,1,1.1872241249657236,None,20.609651917009614,20.906394125020597,2,0.5939907249994576,0.35149930304634885,,,,,,,,,,,,,,,,,,,,,,,,,,2025-12-30_18h56.49.811,4_calibr_sum,,2025.1.1,None,2025-12-30 18h56.56.500057 +0400,
,7,7,0,,,,0.13,0.14,right,0.46,0.25,-0.2,0.2,0.2,-0.2,10,25,1.0,,,,,right,1,0.3111905829864554,None,,,,,,,,,,,,,0,7,7,14,,,,,20.915981042024214,,,,,,,,,,,,,,,,,,,,,,,,,,,,,,,,,,,,,,,,,,,,,,,,,,,,20.906912375008687,20.915981042024214,21.23075912502827,right,1,0.3111905829864554,None,21.230840792006347,21.524053500033915,3,0.5468573679972906,0.3377389032174501,,,,,,,,,,,,,,,,,,,,,,,,,,2025-12-30_18h56.49.811,4_calibr_sum,,2025.1.1,None,2025-12-30 18h56.56.500057 +0400,
,8,8,0,,,,0.2,0.21,left,0.15,0.6,-0.3,0.21,0.3,0.18,6,47,1.5,,,,,right,0,0.6183029579697177,None,,,,,,,,,,,,,0,8,8,33,,,,,21.533550332998857,,,,,,,,,,,,,,,,,,,,,,,,,,,,,,,,,,,,,,,,,,,,,,,,,,,,21.524542375002056,21.533550332998857,22.166694458050188,right,0,0.6183029579697177,None,22.16905491700163,22.465424333000556,3,0.5570638808504944,0.3136833395260046,,,,,,,,,,,,,,,,,,,,,,,,,,2025-12-30_18h56.49.811,4_calibr_sum,,2025.1.1,None,2025-12-30 18h56.56.500057 +0400,
,9,9,0,,,,0.18,0.17,left,0.4,0.19,-0.3,0.2,0.3,-0.2,45,5,0.7,,,,,right,0,0.4932240420021117,None,,,,,,,,,,,,,0,9,9,6,,,,,22.47617037501186,,,,,,,,,,,,,,,,,,,,,,,,,,,,,,,,,,,,,,,,,,,,,,,,,,,,22.46656458301004,22.47617037501186,22.975307083048392,right,0,0.4932240420021117,None,22.975439750007354,23.274243833031505,3,0.5490839009944466,0.29418250008911784,,,,,,,,,,,,,,,,,,,,,,,,,,2025-12-30_18h56.49.811,4_calibr_sum,,2025.1.1,None,2025-12-30 18h56.56.500057 +0400,
,10,10,0,,,,0.13,0.14,right,0.46,0.25,-0.2,0.2,0.2,-0.2,10,25,1.0,,,,,right,1,0.5291040830197744,None,,,,,,,,,,,,,0,10,10,13,,,,,23.28407650004374,,,,,,,,,,,,,,,,,,,,,,,,,,,,,,,,,,,,,,,,,,,,,,,,,,,,23.275019332999364,23.28407650004374,23.815163417020813,right,1,0.5291040830197744,None,23.81720991700422,24.114719000004698,4,0.546863921219483,0.27742898695060697,,,,,,,,,,,,,,,,,,,,,,,,,,2025-12-30_18h56.49.811,4_calibr_sum,,2025.1.1,None,2025-12-30 18h56.56.500057 +0400,
,11,11,0,,,,0.21,0.22,right,0.54,0.22,-0.2,0.21,0.2,0.18,37,7,1.5,,,,,right,1,0.308616041962523,None,,,,,,,,,,,,,0,11,11,22,,,,,24.125213958031964,,,,,,,,,,,,,,,,,,,,,,,,,,,,,,,,,,,,,,,,,,,,,,,,,,,,24.115914791997056,24.125213958031964,24.438707082998008,right,1,0.308616041962523,None,24.438855375046842,24.732330000028014,5,0.523039133293787,0.272724665547023,,,,,,,,,,,,,,,,,,,,,,,,,,2025-12-30_18h56.49.811,4_calibr_sum,,2025.1.1,None,2025-12-30 18h56.56.500057 +0400,
,12,12,0,,,,0.16,0.17,right,0.49,0.78,-0.2,0.15,0.2,-0.18,30,5,1.0,,,,,right,1,0.3603770839981735,None,,,,,,,,,,,,,0,12,12,17,,,,,24.74141045799479,,,,,,,,,,,,,,,,,,,,,,,,,,,,,,,,,,,,,,,,,,,,,,,,,,,,24.733236958039925,24.74141045799479,25.108858833031263,right,1,0.3603770839981735,None,25.108921667037066,25.407045333005954,6,0.5082516742669131,0.26420395287615106,,,,,,,,,,,,,,,,,,,,,,,,,,2025-12-30_18h56.49.811,4_calibr_sum,,2025.1.1,None,2025-12-30 18h56.56.500057 +0400,
,13,13,0,,,,0.14,0.15,right,0.47,0.75,-0.2,-0.2,0.2,0.2,35,8,0.5,,,,,None,0,,,,,,,,,,,,,,,0,13,13,4,,,,,25.41717479203362,,,,,,,,,,,,,,,,,,,,,,,,,,,,,,,,,,,,,,,,,,,,,,,,,,,,25.408364167029504,25.41717479203362,25.90787266701227,None,0,,,25.9102878330159,26.20548066700576,6,0.5082516742669131,0.26420395287615106,25.918044042016845,,,,,,,,,,,,,,,,,,,,,,,,,2025-12-30_18h56.49.811,4_calibr_sum,,2025.1.1,None,2025-12-30 18h56.56.500057 +0400,
,14,14,0,,,,0.25,0.24,left,0.8,0.17,-0.18,-0.2,0.18,0.2,25,4,1.5,,,,,right,0,0.3028827919624746,None,,,,,,,,,,,,,0,14,14,36,,,,,26.216018292005174,,,,,,,,,,,,,,,,,,,,,,,,,,,,,,,,,,,,,,,,,,,,,,,,,,,,26.206800000043586,26.216018292005174,26.523765125020873,right,0,0.3028827919624746,None,26.525418708042707,26.820885958033614,6,0.49113760074154317,0.25924613393719925,,,,,,,,,,,,,,,,,,,,,,,,,,2025-12-30_18h56.49.811,4_calibr_sum,,2025.1.1,None,2025-12-30 18h56.56.500057 +0400,
,15,15,0,,,,0.17,0.18,left,0.3,0.18,-0.3,-0.2,0.3,0.2,5,45,1.5,,,,,right,0,0.2549997919704765,None,,,,,,,,,,,,,0,15,15,30,,,,,26.831186250026803,,,,,,,,,,,,,,,,,,,,,,,,,,,,,,,,,,,,,,,,,,,,,,,,,,,,26.821518042008393,26.831186250026803,27.090083457995206,right,0,0.2549997919704765,None,27.090173458040226,27.3976478750119,6,0.4729731539129996,0.25690082606032133,,,,,,,,,,,,,,,,,,,,,,,,,,2025-12-30_18h56.49.811,4_calibr_sum,,2025.1.1,None,2025-12-30 18h56.56.500057 +0400,
,16,16,0,,,,0.25,0.26,right,0.54,0.22,-0.3,0.2,0.3,-0.2,37,7,1.5,,,,,right,1,0.45214991696411744,None,,,,,,,,,,,,,0,16,16,26,,,,,27.40834454202559,,,,,,,,,,,,,,,,,,,,,,,,,,,,,,,,,,,,,,,,,,,,,,,,,,,,27.39881195803173,27.40834454202559,27.865280291996896,right,1,0.45214991696411744,None,27.866821917006746,28.164000917051453,7,0.4714857798452223,0.24761391070584135,,,,,,,,,,,,,,,,,,,,,,,,,,2025-12-30_18h56.49.811,4_calibr_sum,,2025.1.1,None,2025-12-30 18h56.56.500057 +0400,
,17,17,0,,,,0.16,0.15,left,0.17,0.7,-0.3,-0.22,0.3,0.18,6,47,1.5,,,,,right,0,0.5195053329807706,None,,,,,,,,,,,,,0,17,17,20,,,,,28.17412125004921,,,,,,,,,,,,,,,,,,,,,,,,,,,,,,,,,,,,,,,,,,,,,,,,,,,,28.16514541703509,28.17412125004921,28.69893641700037,right,0,0.5195053329807706,None,28.70131150004454,28.997939667024184,7,0.4746870833875922,0.23951746424402923,,,,,,,,,,,,,,,,,,,,,,,,,,2025-12-30_18h56.49.811,4_calibr_sum,,2025.1.1,None,2025-12-30 18h56.56.500057 +0400,
,18,18,0,,,,0.16,0.17,right,0.49,0.78,-0.2,0.15,0.2,-0.18,30,5,0.7,,,,,right,1,0.5879852920188569,None,,,,,,,,,,,,,0,18,18,7,,,,,29.007963208016008,,,,,,,,,,,,,,,,,,,,,,,,,,,,,,,,,,,,,,,,,,,,,,,,,,,,28.999038292036857,29.007963208016008,29.60120337503031,right,1,0.5879852920188569,None,29.60342550004134,29.897419750050176,8,0.48176822142704623,0.2335277605275843,,,,,,,,,,,,,,,,,,,,,,,,,,2025-12-30_18h56.49.811,4_calibr_sum,,2025.1.1,None,2025-12-30 18h56.56.500057 +0400,
,19,19,0,,,,0.26,0.27,right,0.15,0.5,-0.3,-0.2,0.3,0.2,5,45,1.0,,,,,right,1,0.31985820800764486,None,,,,,,,,,,,,,0,19,19,10,,,,,29.906915416999254,,,,,,,,,,,,,,,,,,,,,,,,,,,,,,,,,,,,,,,,,,,,,,,,,,,,29.898077499994542,29.906915416999254,30.23086441704072,right,1,0.31985820800764486,None,30.231003749999218,30.523657750047278,9,0.47224410299061087,0.22973594065592678,,,,,,,,,,,,,,,,,,,,,,,,,,2025-12-30_18h56.49.811,4_calibr_sum,,2025.1.1,None,2025-12-30 18h56.56.500057 +0400,
,20,20,0,,,,0.17,0.16,left,0.3,0.18,-0.3,-0.2,0.3,0.2,5,45,1.5,,,,,right,0,0.4568915829877369,None,,,,,,,,,,,,,0,20,20,21,,,,,30.53482066700235,,,,,,,,,,,,,,,,,,,,,,,,,,,,,,,,,,,,,,,,,,,,,,,,,,,,30.524826500040945,30.53482066700235,30.996955250040628,right,0,0.4568915829877369,None,30.998696833034046,31.290260625013616,9,0.4713911852126734,0.22329089730255855,,,,,,,,,,,,,,,,,,,,,,,,,,2025-12-30_18h56.49.811,4_calibr_sum,,2025.1.1,None,2025-12-30 18h56.56.500057 +0400,
,21,21,0,,,,0.28,0.27,left,0.13,0.85,-0.18,-0.22,0.18,0.18,5,45,1.5,,,,,right,0,0.9159515419742092,None,,,,,,,,,,,,,0,21,21,24,,,,,31.30215920804767,,,,,,,,,,,,,,,,,,,,,,,,,,,,,,,,,,,,,,,,,,,,,,,,,,,,31.291502458043396,31.30215920804767,32.22287191700889,right,0,0.9159515419742092,None,32.222946833004244,32.52174245804781,9,0.49478909872643845,0.23893304201365273,,,,,,,,,,,,,,,,,,,,,,,,,,2025-12-30_18h56.49.811,4_calibr_sum,,2025.1.1,None,2025-12-30 18h56.56.500057 +0400,
,22,22,0,,,,0.12,0.13,right,0.45,0.85,-0.2,0.0,0.2,0.2,5,10,1.5,,,,,right,1,0.2544794169953093,None,,,,,,,,,,,,,0,22,22,28,,,,,32.53160600003321,,,,,,,,,,,,,,,,,,,,,,,,,,,,,,,,,,,,,,,,,,,,,,,,,,,,32.52220320800552,32.53160600003321,32.80003745801514,right,1,0.2544794169953093,None,32.80235087504843,33.098335542017594,10,0.482773614639882,0.23869984067119646,,,,,,,,,,,,,,,,,,,,,,,,,,2025-12-30_18h56.49.811,4_calibr_sum,,2025.1.1,None,2025-12-30 18h56.56.500057 +0400,
,23,23,0,,,,0.23,0.17,right,0.52,0.2,-0.3,-0.22,0.3,0.18,36,10,1.5,,,,,right,1,0.172587042034138,None,,,,,,,,,,,,,0,23,23,29,,,,,33.108776542008854,,,,,,,,,,,,,,,,,,,,,,,,,,,,,,,,,,,,,,,,,,,,,,,,,,,,33.09937433304731,33.108776542008854,33.300237332994584,right,1,0.172587042034138,None,33.30039608303923,33.59921958303312,11,0.4680028254681799,0.24213202696110292,,,,,,,,,,,,,,,,,,,,,,,,,,2025-12-30_18h56.49.811,4_calibr_sum,,2025.1.1,None,2025-12-30 18h56.56.500057 +0400,
,24,24,0,,,,0.14,0.15,right,0.47,0.75,-0.2,-0.2,0.2,0.2,35,8,1.0,,,,,right,1,0.13920749997487292,None,,,,,,,,,,,,,0,24,24,15,,,,,33.60798437503399,,,,,,,,,,,,,,,,,,,,,,,,,,,,,,,,,,,,,,,,,,,,,,,,,,,,33.60058387502795,33.60798437503399,33.76698941702489,right,1,0.13920749997487292,None,33.767142667027656,34.081013458024245,12,0.45305758340030233,0.24627947247921628,,,,,,,,,,,,,,,,,,,,,,,,,,2025-12-30_18h56.49.811,4_calibr_sum,,2025.1.1,None,2025-12-30 18h56.56.500057 +0400,
,25,25,0,,,,0.22,0.21,left,0.17,0.8,-0.18,-0.22,0.18,0.18,45,5,1.0,,,,,right,0,0.14985962503124028,None,,,,,,,,,,,,,0,25,25,19,,,,,34.09761633304879,,,,,,,,,,,,,,,,,,,,,,,,,,,,,,,,,,,,,,,,,,,,,,,,,,,,34.08212075004121,34.09761633304879,34.24892900005216,right,0,0.14985962503124028,None,34.25196250004228,34.54774687503232,12,0.43987506347121264,0.2486756939270775,,,,,,,,,,,,,,,,,,,,,,,,,,2025-12-30_18h56.49.811,4_calibr_sum,,2025.1.1,None,2025-12-30 18h56.56.500057 +0400,
,26,26,0,,,,0.24,0.25,right,0.13,0.85,-0.3,-0.2,0.3,0.2,0,45,1.5,,,,,right,1,0.14452349999919534,None,,,,,,,,,,,,,0,26,26,25,,,,,34.55753883300349,,,,,,,,,,,,,,,,,,,,,,,,,,,,,,,,,,,,,,,,,,,,,,,,,,,,34.54891920799855,34.55753883300349,34.70745862502372,right,1,0.14452349999919534,None,34.70902800001204,35.004242708033416,13,0.4275687483265453,0.2504919055478157,,,,,,,,,,,,,,,,,,,,,,,,,,2025-12-30_18h56.49.811,4_calibr_sum,,2025.1.1,None,2025-12-30 18h56.56.500057 +0400,
,27,27,0,,,,0.27,0.26,left,0.52,0.2,-0.18,0.15,0.18,-0.18,20,4,1.5,,,,,right,0,0.13299770903540775,None,,,,,,,,,,,,,0,27,27,38,,,,,35.01397166703828,,,,,,,,,,,,,,,,,,,,,,,,,,,,,,,,,,,,,,,,,,,,,,,,,,,,35.00494800001616,35.01397166703828,35.15042983304011,right,0,0.13299770903540775,None,35.151867750042584,35.44819108303636,13,0.4157859067548998,0.2521277364496749,,,,,,,,,,,,,,,,,,,,,,,,,,2025-12-30_18h56.49.811,4_calibr_sum,,2025.1.1,None,2025-12-30 18h56.56.500057 +0400,
,28,28,0,,,,0.17,0.18,right,0.5,0.2,-0.2,-0.22,0.2,0.18,7,45,0.5,,,,,right,1,0.18079695804044604,None,,,,,,,,,,,,,0,28,28,2,,,,,35.457002167007886,,,,,,,,,,,,,,,,,,,,,,,,,,,,,,,,,,,,,,,,,,,,,,,,,,,,35.449316500045825,35.457002167007886,35.642310167022515,right,1,0.18079695804044604,None,35.64464837504784,35.9378791670315,14,0.4067478702658823,0.25132769403447436,,,,,,,,,,,,,,,,,,,,,,,,,,2025-12-30_18h56.49.811,4_calibr_sum,,2025.1.1,None,2025-12-30 18h56.56.500057 +0400,
,29,29,0,,,,0.2,0.21,right,0.13,0.85,-0.2,-0.2,0.2,0.2,0,45,1.0,,,,,right,1,0.12337112502427772,None,,,,,,,,,,,,,0,29,29,9,,,,,35.94774066703394,,,,,,,,,,,,,,,,,,,,,,,,,,,,,,,,,,,,,,,,,,,,,,,,,,,,35.93832900002599,35.94774066703394,36.08254170801956,right,1,0.12337112502427772,None,36.08263104199432,36.38197512499755,15,0.396252435256934,0.25236907658463076,,,,,,,,,,,,,,,,,,,,,,,,,,2025-12-30_18h56.49.811,4_calibr_sum,,2025.1.1,None,2025-12-30 18h56.56.500057 +0400,
,30,30,0,,,,0.24,0.23,left,0.7,0.16,-0.18,0.2,0.18,-0.2,6,47,1.5,,,,,right,0,0.16164979099994525,None,,,,,,,,,,,,,0,30,30,35,,,,,36.39127925003413,,,,,,,,,,,,,,,,,,,,,,,,,,,,,,,,,,,,,,,,,,,,,,,,,,,,36.382476833008695,36.39127925003413,36.56652158300858,right,0,0.16164979099994525,None,36.56813416699879,36.86474387504859,15,0.38787376939061297,0.2516166880368421,,,,,,,,,,,,,,,,,,,,,,,,,,2025-12-30_18h56.49.811,4_calibr_sum,,2025.1.1,None,2025-12-30 18h56.56.500057 +0400,
,31,31,0,,,,0.15,0.16,right,0.48,0.15,-0.2,0.21,0.2,0.18,9,25,1.0,,,,,right,1,0.20505887496983632,None,,,,,,,,,,,,,0,31,31,16,,,,,36.87555970804533,,,,,,,,,,,,,,,,,,,,,,,,,,,,,,,,,,,,,,,,,,,,,,,,,,,,36.8660321670468,36.87555970804533,37.08341633301461,right,1,0.20505887496983632,None,37.08502987504471,37.382013500027824,16,0.38156980751403446,0.24948053915249765,,,,,,,,,,,,,,,,,,,,,,,,,,2025-12-30_18h56.49.811,4_calibr_sum,,2025.1.1,None,2025-12-30 18h56.56.500057 +0400,
,32,32,0,,,,0.16,0.15,left,0.17,0.7,-0.3,-0.22,0.3,0.18,6,47,1.5,,,,,right,0,0.2337585419882089,None,,,,,,,,,,,,,0,32,32,27,,,,,37.39072954200674,,,,,,,,,,,,,,,,,,,,,,,,,,,,,,,,,,,,,,,,,,,,,,,,,,,,37.38329862500541,37.39072954200674,37.63107379199937,right,0,0.2337585419882089,None,37.63281404203735,37.93133166700136,16,0.37664276532984026,0.24671816180509884,,,,,,,,,,,,,,,,,,,,,,,,,,2025-12-30_18h56.49.811,4_calibr_sum,,2025.1.1,None,2025-12-30 18h56.56.500057 +0400,
,33,33,0,,,,0.18,0.19,right,0.51,0.8,-0.2,-0.2,0.2,0.2,45,3,0.5,,,,,right,1,0.20911183400312439,None,,,,,,,,,,,,,0,33,33,3,,,,,37.940479542012326,,,,,,,,,,,,,,,,,,,,,,,,,,,,,,,,,,,,,,,,,,,,,,,,,,,,37.932455667003524,37.940479542012326,38.161052333016414,right,1,0.20911183400312439,None,38.16357087501092,38.45584075001534,17,0.3712385417386559,0.24450455364019202,,,,,,,,,,,,,,,,,,,,,,,,,,2025-12-30_18h56.49.811,4_calibr_sum,,2025.1.1,None,2025-12-30 18h56.56.500057 +0400,
,34,34,0,,,,0.19,0.2,left,0.5,0.2,-0.3,-0.2,0.3,0.2,30,15,1.5,,,,,right,0,0.51561937504448,None,,,,,,,,,,,,,0,34,34,32,,,,,38.4658052920131,,,,,,,,,,,,,,,,,,,,,,,,,,,,,,,,,,,,,,,,,,,,,,,,,,,,38.45698087499477,38.4658052920131,38.99275954201585,right,0,0.51561937504448,None,38.99453374999575,39.291339667048305,17,0.3757504427794629,0.241961462083098,,,,,,,,,,,,,,,,,,,,,,,,,,2025-12-30_18h56.49.811,4_calibr_sum,,2025.1.1,None,2025-12-30 18h56.56.500057 +0400,
,35,35,0,,,,0.12,0.13,right,0.45,0.85,-0.2,0.0,0.2,0.2,5,10,1.0,,,,,None,0,,,,,,,,,,,,,,,0,35,35,12,,,,,39.30409133300418,,,,,,,,,,,,,,,,,,,,,,,,,,,,,,,,,,,,,,,,,,,,,,,,,,,,39.29283925000345,39.30409133300418,40.287719167012256,None,0,,,40.28940925002098,40.58127683302155,17,0.3757504427794629,0.241961462083098,40.29622479202226,,,,,,,,,,,,,,,,,,,,,,,,,2025-12-30_18h56.49.811,4_calibr_sum,,2025.1.1,None,2025-12-30 18h56.56.500057 +0400,
,36,36,0,,,,0.19,0.2,right,0.52,0.2,-0.2,0.2,0.2,-0.2,36,10,1.5,,,,,right,1,0.8050694999983534,None,,,,,,,,,,,,,0,36,36,34,,,,,40.592139333020896,,,,,,,,,,,,,,,,,,,,,,,,,,,,,,,,,,,,,,,,,,,,,,,,,,,,40.58231650001835,40.592139333020896,41.400162625010125,right,1,0.8050694999983534,None,41.40210466703866,41.69828770804452,18,0.38876011118003534,0.24937380525041342,,,,,,,,,,,,,,,,,,,,,,,,,,2025-12-30_18h56.49.811,4_calibr_sum,,2025.1.1,None,2025-12-30 18h56.56.500057 +0400,
,37,37,0,,,,0.15,0.14,left,0.8,0.16,-0.3,0.15,0.3,-0.18,30,15,0.5,,,,,right,0,0.41350437502842396,None,,,,,,,,,,,,,0,37,37,1,,,,,41.70896591700148,,,,,,,,,,,,,,,,,,,,,,,,,,,,,,,,,,,,,,,,,,,,,,,,,,,,41.69942658301443,41.70896591700148,42.12627504201373,right,0,0.41350437502842396,None,42.12865262501873,42.43036050000228,18,0.38948788364616443,0.24571474356557196,,,,,,,,,,,,,,,,,,,,,,,,,,2025-12-30_18h56.49.811,4_calibr_sum,,2025.1.1,None,2025-12-30 18h56.56.500057 +0400,
,38,38,0,,,,0.15,0.14,left,0.8,0.16,-0.3,0.15,0.3,-0.18,30,15,1.0,,,,,right,0,0.360823041992262,None,,,,,,,,,,,,,0,38,38,11,,,,,42.43987266701879,,,,,,,,,,,,,,,,,,,,,,,,,,,,,,,,,,,,,,,,,,,,,,,,,,,,42.4311494170106,42.43987266701879,42.802560250042006,right,0,0.360823041992262,None,42.80262970802141,43.114160375029314,18,0.3886688881703386,0.24222617493091841,,,,,,,,,,,,,,,,,,,,,,,,,,2025-12-30_18h56.49.811,4_calibr_sum,,2025.1.1,None,2025-12-30 18h56.56.500057 +0400,
,39,39,0,,,,0.14,0.13,left,0.15,0.5,-0.3,0.21,0.3,0.18,45,5,0.7,,,,,right,0,0.2827268749824725,None,,,,,,,,,,,,,0,39,39,8,,,,,43.13145787501708,,,,,,,,,,,,,,,,,,,,,,,,,,,,,,,,,,,,,,,,,,,,,,,,,,,,43.1153289580252,43.13145787501708,43.41738550004084,right,0,0.2827268749824725,None,43.41749704204267,43.71575479203602,18,0.3857260544706757,0.23947193840417544,,,,,,,,,,,,,,,,,,,,,,,,,,2025-12-30_18h56.49.811,4_calibr_sum,,2025.1.1,None,2025-12-30 18h56.56.500057 +0400,
,0,0,0,,,,,,,,,,,,,,,,,,,,,,,,Это было сложно?,5.43360433604336,1.9733912920346484,"[(np.float64(5.43360433604336), 1.9733912920346484)]",,,,,,,,,,,,,0,0,0,0,43.74677787499968,,,,,,,,,,,,,,,,,,,,,,,,,,,,,,,,,,,,,,,,,,,,,,,,,,,,,,,,,,,,,,,,,43.732498833036516,43.74677787499968,43.74677787499968,45.70795700000599,5.43360433604336,1.9733912920346484,"[(np.float64(5.43360433604336), 1.9733912920346484)]",,,,,,,,,,,,,,,,,,2025-12-30_18h56.49.811,4_calibr_sum,,2025.1.1,None,2025-12-30 18h56.56.500057 +0400,
,1,1,0,,,,,,,,,,,,,,,,,,,,,,,,Вы могли контролировать ситуацию?,5.2168021680216805,0.43846704199677333,"[(np.float64(5.2168021680216805), 0.43846704199677333)]",,,,,,,,,,,,,0,1,1,1,45.72169933305122,,,,,,,,,,,,,,,,,,,,,,,,,,,,,,,,,,,,,,,,,,,,,,,,,,,,,,,,,,,,,,,,,45.71297579200473,45.72169933305122,45.72169933305122,46.15370983304456,5.2168021680216805,0.43846704199677333,"[(np.float64(5.2168021680216805), 0.43846704199677333)]",,,,,,,,,,,,,,,,,,2025-12-30_18h56.49.811,4_calibr_sum,,2025.1.1,None,2025-12-30 18h56.56.500057 +0400,
,2,2,0,,,,,,,,,,,,,,,,,,,,,,,,Насколько результат зависел от Вас?,5.137308039747064,0.3257443329785019,"[(np.float64(5.137308039747064), 0.3257443329785019)]",,,,,,,,,,,,,0,2,2,2,46.163981792051345,,,,,,,,,,,,,,,,,,,,,,,,,,,,,,,,,,,,,,,,,,,,,,,,,,,,,,,,,,,,,,,,,46.1563737920369,46.163981792051345,46.163981792051345,46.48668379202718,5.137308039747064,0.3257443329785019,"[(np.float64(5.137308039747064), 0.3257443329785019)]",,,,,,,,,,,,,,,,,,2025-12-30_18h56.49.811,4_calibr_sum,,2025.1.1,None,2025-12-30 18h56.56.500057 +0400,
,3,3,0,,,,,,,,,,,,,,,,,,,,,,,,Насколько успешно получалось сравнивать квадраты?,5.115627822944896,0.6431521659833379,"[(np.float64(5.115627822944896), 0.6431521659833379)]",,,,,,,,,,,,,0,3,3,3,46.49691683304263,,,,,,,,,,,,,,,,,,,,,,,,,,,,,,,,,,,,,,,,,,,,,,,,,,,,,,,,,,,,,,,,,46.4895097920089,46.49691683304263,46.49691683304263,47.13656145799905,5.115627822944896,0.6431521659833379,"[(np.float64(5.115627822944896), 0.6431521659833379)]",,,,,,,,,,,,,,,,,,2025-12-30_18h56.49.811,4_calibr_sum,,2025.1.1,None,2025-12-30 18h56.56.500057 +0400,
,4,4,0,,,,,,,,,,,,,,,,,,,,,,,,Вы довольны результатом?,5.115627822944896,0.4676253750221804,"[(np.float64(5.115627822944896), 0.4676253750221804)]",,,,,,,,,,,,,0,4,4,4,47.145241582999006,,,,,,,,,,,,,,,,,,,,,,,,,,,,,,,,,,,,,,,,,,,,,,,,,,,,,,,,,,,,,,,,,47.13813666702481,47.145241582999006,47.145241582999006,47.61320341704413,5.115627822944896,0.4676253750221804,"[(np.float64(5.115627822944896), 0.4676253750221804)]",,,,,,,,,,,,,,,,,,2025-12-30_18h56.49.811,4_calibr_sum,,2025.1.1,None,2025-12-30 18h56.56.500057 +0400,
,,,,,,,,,,,,,,,,,,,,,,,,,,,,,,,,,,,,,,,,,,,,,,,,,,,,,,,,,,,,,,,,,,,,,,,,,,,,,,,,,,,,,,,,,,,,,,,,,,,,,,,,,,,,,,,,,,,,,,,47.61618716700468,47.62123537500156,47.62123537500156,48.91791316703893,48.91791316703893,48.90500795800472,None,,,,,,,,,,,2025-12-30_18h56.49.811,4_calibr_sum,,2025.1.1,None,2025-12-30 18h56.56.500057 +0400,
,,,,,,,,,,,,,,,,,,,,,,,,,,,,,,,,,,,,,,,,,,,,,,,,,,,,,,,,,,,,,,,,,,,,,,,,,,,,,,,,,,,,,,,,,,,,,,,,,,,,,,,,,,,,,,,,,,,,,,,,,,,,,,48.906528207997326,48.91791316703893,53.76767187501537,Введите номер строки для учета баллов. Затем нажмите на пробел для завершения:6666,,,,,,,2025-12-30_18h56.49.811,4_calibr_sum,,2025.1.1,None,2025-12-30 18h56.56.500057 +0400,
,,,,,,,,,,,,,,,,,,,,,,,,,,,,,,,,,,,,,,,,,,,,,,,,,,,,,,,,,,,,,,,,,,,,,,,,,,,,,,,,,,,,,,,,,,,,,,,,,,,,,,,,,,,,,,,,,,,,,,,,,,,,,,,,,,53.76780508301454,53.78557649999857,54.769966375024524,,,,2025-12-30_18h56.49.811,4_calibr_sum,,2025.1.1,None,2025-12-30 18h56.56.500057 +0400,
