Text,thisN,thisTrialN,thisRepN,BJW_slider.response,BJW_slider.rt,BJW_slider.history,w1,w2,corr_answ,op1,op2,xPos1,yPos1,xPos2,yPos2,or1,or2,time,resp_tren.keys,resp_tren.corr,resp_tren.rt,resp_tren.duration,resp.keys,resp.corr,resp.rt,resp.duration,q_sl,sl_h.response,sl_h.rt,sl_h.history,BJW_trials.thisRepN,BJW_trials.thisTrialN,BJW_trials.thisN,BJW_trials.thisIndex,trials.thisRepN,trials.thisTrialN,trials.thisN,trials.thisIndex,loop_L.thisRepN,loop_L.thisTrialN,loop_L.thisN,loop_L.thisIndex,l_slid.thisRepN,l_slid.thisTrialN,l_slid.thisN,l_slid.thisIndex,thisRow.t,notes,Main_instr.started,main_instr_text.started,main_instr_key.started,Main_instr.stopped,main_instr_key.keys,main_instr_key.rt,main_instr_key.duration,instr_BJW.started,BJW_inst_text.started,BJW_key_resp.started,instr_BJW.stopped,BJW_key_resp.keys,BJW_key_resp.rt,BJW_key_resp.duration,BJW.started,BJW_text.started,BJW.stopped,BJW_trials.BJW_slider.response,BJW_trials.BJW_slider.rt,BJW_trials.BJW_slider.history,instr.started,instr.stopped,resp_instr.keys,resp_instr.rt,resp_instr.duration,instr_2.started,text_3.started,key_resp.started,instr_2.stopped,key_resp.keys,key_resp.rt,key_resp.duration,tren.started,pol_1.started,pol_2.started,text_tren.started,tren.stopped,trials.resp_tren.keys,trials.resp_tren.corr,trials.resp_tren.rt,trials.resp_tren.duration,fb_tren.started,text_fb_tren.started,fb_tren.stopped,text_fb_tren.stopped,instr3.started,instr3.stopped,reesp_instr.keys,reesp_instr.rt,reesp_instr.duration,task_L.started,resp.started,task_L.stopped,loop_L.resp.keys,loop_L.resp.corr,loop_L.resp.rt,loop_L.resp.duration,fb_task.started,fb_task.stopped,corr_sum,mean_rt,sd_rt,resp.stopped,slider.started,sl_h.started,text_sl.started,slider.stopped,l_slid.sl_h.response,l_slid.sl_h.rt,l_slid.sl_h.history,fin_sum.started,text_5.started,key_resp_2.started,text_5.stopped,key_resp_2.stopped,fin_sum.stopped,key_resp_2.keys,Get_points.started,textbox.started,textbox.stopped,Get_points.stopped,thanks.started,text_th.started,name,gender,ag,date,expName,expVersion,psychopyVersion,frameRate,expStart,
,,,,,,,,,,,,,,,,,,,,,,,,,,,,,,,,,,,,,,,,,,,,,,,,,0.023110417008865625,0.029709374997764826,0.029709374997764826,1.814211958029773,space,1.765016499964986,None,,,,,,,,,,,,,,,,,,,,,,,,,,,,,,,,,,,,,,,,,,,,,,,,,,,,,,,,,,,,,,,,,,,,,,,,,,,,,,,,2025-12-30_18h49.28.266,4_calibr_sum,,2025.1.1,121.18794531592023,2025-12-30 18h49.33.102201 +0400,
,,,,,,,,,,,,,,,,,,,,,,,,,,,,,,,,,,,,,,,,,,,,,,,,,,,,,,,,1.8142425420228392,1.8264506250270642,1.8264506250270642,2.240349583036732,space,0.4045576669741422,None,,,,,,,,,,,,,,,,,,,,,,,,,,,,,,,,,,,,,,,,,,,,,,,,,,,,,,,,,,,,,,,,,,,,,,,,,2025-12-30_18h49.28.266,4_calibr_sum,,2025.1.1,121.18794531592023,2025-12-30 18h49.33.102201 +0400,
"Я считаю, что, по большому счету, заслуживаю того, что происходит со мной.",0,0,0,3.0,1.942215374961961,"[(3.0, 1.942215374961961)]",,,,,,,,,,,,,,,,,,,,,,,,,0,0,0,0,,,,,,,,,,,,,2.2920883750193752,,,,,,,,,,,,,,,,2.259337083029095,2.2920883750193752,4.200316125003155,3.0,1.942215374961961,"[(3.0, 1.942215374961961)]",,,,,,,,,,,,,,,,,,,,,,,,,,,,,,,,,,,,,,,,,,,,,,,,,,,,,,,,,,,,,,,,,,,2025-12-30_18h49.28.266,4_calibr_sum,,2025.1.1,121.18794531592023,2025-12-30 18h49.33.102201 +0400,
"Как правило, жизнь ко мне справедлива.",1,1,0,3.0,0.13425270898733288,"[(3.0, 0.13425270898733288)]",,,,,,,,,,,,,,,,,,,,,,,,,0,1,1,1,,,,,,,,,,,,,4.209789416985586,,,,,,,,,,,,,,,,4.202673625026364,4.209789416985586,4.341942000028212,3.0,0.13425270898733288,"[(3.0, 0.13425270898733288)]",,,,,,,,,,,,,,,,,,,,,,,,,,,,,,,,,,,,,,,,,,,,,,,,,,,,,,,,,,,,,,,,,,,2025-12-30_18h49.28.266,4_calibr_sum,,2025.1.1,121.18794531592023,2025-12-30 18h49.33.102201 +0400,
"Я верю, что обычно получаю то, что заслуживаю.",2,2,0,3.0,0.12549137498717755,"[(3.0, 0.12549137498717755)]",,,,,,,,,,,,,,,,,,,,,,,,,0,2,2,2,,,,,,,,,,,,,4.3512902919901535,,,,,,,,,,,,,,,,4.34371170803206,4.3512902919901535,4.474680208018981,3.0,0.12549137498717755,"[(3.0, 0.12549137498717755)]",,,,,,,,,,,,,,,,,,,,,,,,,,,,,,,,,,,,,,,,,,,,,,,,,,,,,,,,,,,,,,,,,,,2025-12-30_18h49.28.266,4_calibr_sum,,2025.1.1,121.18794531592023,2025-12-30 18h49.33.102201 +0400,
В моей жизни в общем и целом всё происходит справедливо.,3,3,0,3.0,0.14181624999037012,"[(3.0, 0.14181624999037012)]",,,,,,,,,,,,,,,,,,,,,,,,,0,3,3,3,,,,,,,,,,,,,4.484994875034317,,,,,,,,,,,,,,,,4.4772635829867795,4.484994875034317,4.624028042017017,3.0,0.14181624999037012,"[(3.0, 0.14181624999037012)]",,,,,,,,,,,,,,,,,,,,,,,,,,,,,,,,,,,,,,,,,,,,,,,,,,,,,,,,,,,,,,,,,,,2025-12-30_18h49.28.266,4_calibr_sum,,2025.1.1,121.18794531592023,2025-12-30 18h49.33.102201 +0400,
"В моей жизни несправедливость – скорее исключение, чем правило.",4,4,0,3.0,0.11717466596746817,"[(3.0, 0.11717466596746817)]",,,,,,,,,,,,,,,,,,,,,,,,,0,4,4,4,,,,,,,,,,,,,4.634036792034749,,,,,,,,,,,,,,,,4.626045625016559,4.634036792034749,4.750735583016649,3.0,0.11717466596746817,"[(3.0, 0.11717466596746817)]",,,,,,,,,,,,,,,,,,,,,,,,,,,,,,,,,,,,,,,,,,,,,,,,,,,,,,,,,,,,,,,,,,,2025-12-30_18h49.28.266,4_calibr_sum,,2025.1.1,121.18794531592023,2025-12-30 18h49.33.102201 +0400,
"Я считаю, что в целом в моей жизни всё справедливо.",5,5,0,3.0,0.1332007089513354,"[(3.0, 0.1332007089513354)]",,,,,,,,,,,,,,,,,,,,,,,,,0,5,5,5,,,,,,,,,,,,,4.759350207983516,,,,,,,,,,,,,,,,4.752267042000312,4.759350207983516,4.8912728750146925,3.0,0.1332007089513354,"[(3.0, 0.1332007089513354)]",,,,,,,,,,,,,,,,,,,,,,,,,,,,,,,,,,,,,,,,,,,,,,,,,,,,,,,,,,,,,,,,,,,2025-12-30_18h49.28.266,4_calibr_sum,,2025.1.1,121.18794531592023,2025-12-30 18h49.33.102201 +0400,
"Я думаю, что важные решения, которые касаются меня, обычно справедливы.",6,6,0,3.0,0.13344199996208772,"[(3.0, 0.13344199996208772)]",,,,,,,,,,,,,,,,,,,,,,,,,0,6,6,6,,,,,,,,,,,,,4.900994833034929,,,,,,,,,,,,,,,,4.893251167028211,4.900994833034929,5.033542082994245,3.0,0.13344199996208772,"[(3.0, 0.13344199996208772)]",,,,,,,,,,,,,,,,,,,,,,,,,,,,,,,,,,,,,,,,,,,,,,,,,,,,,,,,,,,,,,,,,,,2025-12-30_18h49.28.266,4_calibr_sum,,2025.1.1,121.18794531592023,2025-12-30 18h49.33.102201 +0400,
"Я считаю, что в целом мир справедлив.",7,7,0,3.0,0.13396954198833555,"[(3.0, 0.13396954198833555)]",,,,,,,,,,,,,,,,,,,,,,,,,0,7,7,7,,,,,,,,,,,,,5.042132750037126,,,,,,,,,,,,,,,,5.034953291993588,5.042132750037126,5.175035167019814,3.0,0.13396954198833555,"[(3.0, 0.13396954198833555)]",,,,,,,,,,,,,,,,,,,,,,,,,,,,,,,,,,,,,,,,,,,,,,,,,,,,,,,,,,,,,,,,,,,2025-12-30_18h49.28.266,4_calibr_sum,,2025.1.1,121.18794531592023,2025-12-30 18h49.33.102201 +0400,
"Я считаю, что, по большому счету, люди получают то, что заслуживают.",8,8,0,3.0,0.13296008296310902,"[(3.0, 0.13296008296310902)]",,,,,,,,,,,,,,,,,,,,,,,,,0,8,8,8,,,,,,,,,,,,,5.1847115000127815,,,,,,,,,,,,,,,,5.176785417017527,5.1847115000127815,5.3169280419824645,3.0,0.13296008296310902,"[(3.0, 0.13296008296310902)]",,,,,,,,,,,,,,,,,,,,,,,,,,,,,,,,,,,,,,,,,,,,,,,,,,,,,,,,,,,,,,,,,,,2025-12-30_18h49.28.266,4_calibr_sum,,2025.1.1,121.18794531592023,2025-12-30 18h49.33.102201 +0400,
"Я уверен, что справедливость всегда побеждает несправедливость.",9,9,0,3.0,0.14141291700070724,"[(3.0, 0.14141291700070724)]",,,,,,,,,,,,,,,,,,,,,,,,,0,9,9,9,,,,,,,,,,,,,5.325908458034974,,,,,,,,,,,,,,,,5.318651916983072,5.325908458034974,5.466763375035953,3.0,0.14141291700070724,"[(3.0, 0.14141291700070724)]",,,,,,,,,,,,,,,,,,,,,,,,,,,,,,,,,,,,,,,,,,,,,,,,,,,,,,,,,,,,,,,,,,,2025-12-30_18h49.28.266,4_calibr_sum,,2025.1.1,121.18794531592023,2025-12-30 18h49.33.102201 +0400,
"Я убежден, что, если человек пережил несправедливость, в будущем это возместится.",10,10,0,3.0,0.1337516659987159,"[(3.0, 0.1337516659987159)]",,,,,,,,,,,,,,,,,,,,,,,,,0,10,10,10,,,,,,,,,,,,,5.476174042036291,,,,,,,,,,,,,,,,5.468997791991569,5.476174042036291,5.607974125014152,3.0,0.1337516659987159,"[(3.0, 0.1337516659987159)]",,,,,,,,,,,,,,,,,,,,,,,,,,,,,,,,,,,,,,,,,,,,,,,,,,,,,,,,,,,,,,,,,,,2025-12-30_18h49.28.266,4_calibr_sum,,2025.1.1,121.18794531592023,2025-12-30 18h49.33.102201 +0400,
"Я твердо уверен, что несправедливость в самых разных жизненных ситуациях (в семье, учебе и т. д.) – скорее исключение, чем правило.",11,11,0,3.0,0.1282943330006674,"[(3.0, 0.1282943330006674)]",,,,,,,,,,,,,,,,,,,,,,,,,0,11,11,11,,,,,,,,,,,,,5.6337200829875655,,,,,,,,,,,,,,,,5.611062749987468,5.6337200829875655,5.746694917033892,3.0,0.1282943330006674,"[(3.0, 0.1282943330006674)]",,,,,,,,,,,,,,,,,,,,,,,,,,,,,,,,,,,,,,,,,,,,,,,,,,,,,,,,,,,,,,,,,,,2025-12-30_18h49.28.266,4_calibr_sum,,2025.1.1,121.18794531592023,2025-12-30 18h49.33.102201 +0400,
"Я думаю, что все, кто принимает важные решения, стремятся быть справедливыми.",12,12,0,3.0,0.14218116697156802,"[(3.0, 0.14218116697156802)]",,,,,,,,,,,,,,,,,,,,,,,,,0,12,12,12,,,,,,,,,,,,,5.759652292006649,,,,,,,,,,,,,,,,5.749396875035018,5.759652292006649,5.902327542018611,3.0,0.14218116697156802,"[(3.0, 0.14218116697156802)]",,,,,,,,,,,,,,,,,,,,,,,,,,,,,,,,,,,,,,,,,,,,,,,,,,,,,,,,,,,,,,,,,,,2025-12-30_18h49.28.266,4_calibr_sum,,2025.1.1,121.18794531592023,2025-12-30 18h49.33.102201 +0400,
,,,,,,,,,,,,,,,,,,,,,,,,,,,,,,,,,,,,,,,,,,,,,,,,,,,,,,,,,,,,,,,,,,,,,5.9024114580242895,6.75501558301039,space,0.8480876249959692,None,,,,,,,,,,,,,,,,,,,,,,,,,,,,,,,,,,,,,,,,,,,,,,,,,,,,,,,,,,,,,,2025-12-30_18h49.28.266,4_calibr_sum,,2025.1.1,121.18794531592023,2025-12-30 18h49.33.102201 +0400,
,,,,,,,,,,,,,,,,,,,,,,,,,,,,,,,,,,,,,,,,,,,,,,,,,,,,,,,,,,,,,,,,,,,,,,,,,,6.755060625029728,6.764913582999725,6.764913582999725,7.04525858303532,space,0.27147150004748255,None,,,,,,,,,,,,,,,,,,,,,,,,,,,,,,,,,,,,,,,,,,,,,,,,,,,,,,,2025-12-30_18h49.28.266,4_calibr_sum,,2025.1.1,121.18794531592023,2025-12-30 18h49.33.102201 +0400,
,0,0,0,,,,0.22,0.21,left,0.17,0.8,-0.18,-0.22,0.18,0.18,45,5,1.0,right,0,1.1352818749728613,None,,,,,,,,,,,,,0,0,0,0,,,,,,,,,7.067007708013989,,,,,,,,,,,,,,,,,,,,,,,,,,,,,,,,,,7.0538764169905335,7.067007708013989,7.067007708013989,7.067007708013989,8.196363500028383,right,0,1.1352818749728613,None,8.199326833011582,8.239122125029098,8.701886708033271,,,,,,,,,,,,,,,,,,,,,,,,,,,,,,,,,,,,,,,,,,,2025-12-30_18h49.28.266,4_calibr_sum,,2025.1.1,121.18794531592023,2025-12-30 18h49.33.102201 +0400,
,1,1,0,,,,0.28,0.27,left,0.13,0.85,-0.18,-0.22,0.18,0.18,5,45,1.5,right,0,0.3745650830096565,None,,,,,,,,,,,,,0,1,1,5,,,,,,,,,8.71114991698414,,,,,,,,,,,,,,,,,,,,,,,,,,,,,,,,,,8.702686500037089,8.71114991698414,8.71114991698414,8.71114991698414,9.087832832999993,right,0,0.3745650830096565,None,9.087927167012822,9.09646683302708,9.586184707994107,9.598038042022381,,,,,,,,,,,,,,,,,,,,,,,,,,,,,,,,,,,,,,,,,,2025-12-30_18h49.28.266,4_calibr_sum,,2025.1.1,121.18794531592023,2025-12-30 18h49.33.102201 +0400,
,2,2,0,,,,0.21,0.22,right,0.54,0.22,-0.2,0.21,0.2,0.18,37,7,1.5,right,1,0.12210691696964204,None,,,,,,,,,,,,,0,2,2,3,,,,,,,,,9.598038042022381,,,,,,,,,,,,,,,,,,,,,,,,,,,,,,,,,,9.587447833037004,9.598038042022381,9.598038042022381,9.598038042022381,9.723743374983314,right,1,0.12210691696964204,None,9.72641562501667,9.734460042032879,10.21918541699415,10.22731087502325,,,,,,,,,,,,,,,,,,,,,,,,,,,,,,,,,,,,,,,,,,2025-12-30_18h49.28.266,4_calibr_sum,,2025.1.1,121.18794531592023,2025-12-30 18h49.33.102201 +0400,
,3,3,0,,,,0.17,0.16,left,0.3,0.18,-0.3,-0.2,0.3,0.2,5,45,1.0,right,0,0.14757004199782386,None,,,,,,,,,,,,,0,3,3,2,,,,,,,,,10.22731087502325,,,,,,,,,,,,,,,,,,,,,,,,,,,,,,,,,,10.220017082989216,10.22731087502325,10.22731087502325,10.22731087502325,10.379728458006866,right,0,0.14757004199782386,None,10.381641792017035,10.390184000018053,10.877680958015844,10.88828354200814,,,,,,,,,,,,,,,,,,,,,,,,,,,,,,,,,,,,,,,,,,2025-12-30_18h49.28.266,4_calibr_sum,,2025.1.1,121.18794531592023,2025-12-30 18h49.33.102201 +0400,
,4,4,0,,,,0.16,0.15,left,0.17,0.7,-0.3,-0.22,0.3,0.18,6,47,1.0,right,0,0.16756766702746972,None,,,,,,,,,,,,,0,4,4,1,,,,,,,,,10.88828354200814,,,,,,,,,,,,,,,,,,,,,,,,,,,,,,,,,,10.878826375002973,10.88828354200814,10.88828354200814,10.88828354200814,11.053727750026155,right,0,0.16756766702746972,None,11.053789833036717,11.061777333030477,11.553008207993116,11.562561750004534,,,,,,,,,,,,,,,,,,,,,,,,,,,,,,,,,,,,,,,,,,2025-12-30_18h49.28.266,4_calibr_sum,,2025.1.1,121.18794531592023,2025-12-30 18h49.33.102201 +0400,
,5,5,0,,,,0.24,0.25,right,0.13,0.85,-0.3,-0.2,0.3,0.2,0,45,1.5,right,1,0.08411699999123812,None,,,,,,,,,,,,,0,5,5,6,,,,,,,,,11.562561750004534,,,,,,,,,,,,,,,,,,,,,,,,,,,,,,,,,,11.553507999982685,11.562561750004534,11.562561750004534,11.562561750004534,11.64088704198366,right,1,0.08411699999123812,None,11.642965083010495,11.651892625028268,12.15224833303364,,,,,,,,,,,,,,,,,,,,,,,,,,,,,,,,,,,,,,,,,,,2025-12-30_18h49.28.266,4_calibr_sum,,2025.1.1,121.18794531592023,2025-12-30 18h49.33.102201 +0400,
,6,6,0,,,,0.22,0.23,right,0.15,0.5,-0.2,0.15,0.2,-0.18,45,3,1.5,right,1,0.060036208014935255,None,,,,,,,,,,,,,0,6,6,4,,,,,,,,,12.169182708021253,,,,,,,,,,,,,,,,,,,,,,,,,,,,,,,,,,12.153333333029877,12.169182708021253,12.169182708021253,12.169182708021253,12.219747041992377,right,1,0.060036208014935255,None,12.219851000001654,12.227972667024005,12.719887958024628,,,,,,,,,,,,,,,,,,,,,,,,,,,,,,,,,,,,,,,,,,,2025-12-30_18h49.28.266,4_calibr_sum,,2025.1.1,121.18794531592023,2025-12-30 18h49.33.102201 +0400,
,,,,,,,,,,,,,,,,,,,,,,,,,,,,,,,,,,,,,,,,,,,,,,,,,,,,,,,,,,,,,,,,,,,,,,,,,,,,,,,,,,,,,,,,,,,,,,12.719954875006806,15.253640791983344,space,2.530402750009671,None,,,,,,,,,,,,,,,,,,,,,,,,,,,,,,,,,,,,,2025-12-30_18h49.28.266,4_calibr_sum,,2025.1.1,121.18794531592023,2025-12-30 18h49.33.102201 +0400,
,0,0,0,,,,0.22,0.23,right,0.15,0.5,-0.2,0.15,0.2,-0.18,45,3,1.5,,,,,right,1,0.8448055839980952,None,,,,,,,,,,,,,0,0,0,23,,,,,15.291298833035398,,,,,,,,,,,,,,,,,,,,,,,,,,,,,,,,,,,,,,,,,,,,,,,,,,,,15.278278500016313,15.291298833035398,16.13854962500045,right,1,0.8448055839980952,None,16.141378167027142,16.43676387501182,1,0.8448055839980952,0.0,,,,,,,,,,,,,,,,,,,,,,,,,2025-12-30_18h49.28.266,4_calibr_sum,,2025.1.1,121.18794531592023,2025-12-30 18h49.33.102201 +0400,
,1,1,0,,,,0.2,0.21,right,0.13,0.85,-0.2,-0.2,0.2,0.2,0,45,1.0,,,,,right,1,0.5045138749992475,None,,,,,,,,,,,,,0,1,1,9,,,,,16.4466559169814,,,,,,,,,,,,,,,,,,,,,,,,,,,,,,,,,,,,,,,,,,,,,,,,,,,,16.43794287502533,16.4466559169814,16.9542609580094,right,1,0.5045138749992475,None,16.954338832991198,17.253453625016846,2,0.6746597294986714,0.17014585449942388,,,,,,,,,,,,,,,,,,,,,,,,,2025-12-30_18h49.28.266,4_calibr_sum,,2025.1.1,121.18794531592023,2025-12-30 18h49.33.102201 +0400,
,2,2,0,,,,0.18,0.19,left,0.4,0.19,-0.3,0.2,0.3,-0.2,45,5,1.5,,,,,right,0,0.7888213749974966,None,,,,,,,,,,,,,0,2,2,31,,,,,17.26298466703156,,,,,,,,,,,,,,,,,,,,,,,,,,,,,,,,,,,,,,,,,,,,,,,,,,,,17.254587208037265,17.26298466703156,18.054478999983985,right,0,0.7888213749974966,None,18.05792329198448,18.352329750021454,2,0.7127136113316132,0.14898300925722055,,,,,,,,,,,,,,,,,,,,,,,,,2025-12-30_18h49.28.266,4_calibr_sum,,2025.1.1,121.18794531592023,2025-12-30 18h49.33.102201 +0400,
,3,3,0,,,,0.16,0.17,right,0.49,0.78,-0.2,0.15,0.2,-0.18,30,5,0.7,,,,,None,0,,,,,,,,,,,,,,,0,3,3,7,,,,,18.36248983303085,,,,,,,,,,,,,,,,,,,,,,,,,,,,,,,,,,,,,,,,,,,,,,,,,,,,18.35350762499729,18.36248983303085,19.05305295798462,None,0,,,19.05550591700012,19.351554375025444,2,0.7127136113316132,0.14898300925722055,19.062069125007838,,,,,,,,,,,,,,,,,,,,,,,,2025-12-30_18h49.28.266,4_calibr_sum,,2025.1.1,121.18794531592023,2025-12-30 18h49.33.102201 +0400,
,4,4,0,,,,0.17,0.18,left,0.3,0.18,-0.3,-0.2,0.3,0.2,5,45,1.5,,,,,right,0,0.10972849995596334,None,,,,,,,,,,,,,0,4,4,30,,,,,19.360218333022203,,,,,,,,,,,,,,,,,,,,,,,,,,,,,,,,,,,,,,,,,,,,,,,,,,,,19.352128125028685,19.360218333022203,19.479011583025567,right,0,0.10972849995596334,None,19.480290792009328,19.776742957998067,2,0.5619673334877007,0.29123920346836024,,,,,,,,,,,,,,,,,,,,,,,,,2025-12-30_18h49.28.266,4_calibr_sum,,2025.1.1,121.18794531592023,2025-12-30 18h49.33.102201 +0400,
,5,5,0,,,,0.19,0.2,right,0.52,0.2,-0.2,0.2,0.2,-0.2,36,10,1.5,,,,,right,1,1.0716916660312563,None,,,,,,,,,,,,,0,5,5,34,,,,,19.786152874992695,,,,,,,,,,,,,,,,,,,,,,,,,,,,,,,,,,,,,,,,,,,,,,,,,,,,19.77756054198835,19.786152874992695,20.86951066699112,right,1,1.0716916660312563,None,20.870722124993335,21.160269082989544,3,0.6639121999964118,0.3307978871447393,,,,,,,,,,,,,,,,,,,,,,,,,2025-12-30_18h49.28.266,4_calibr_sum,,2025.1.1,121.18794531592023,2025-12-30 18h49.33.102201 +0400,
,6,6,0,,,,0.14,0.15,right,0.47,0.75,-0.2,-0.2,0.2,0.2,35,8,0.5,,,,,None,0,,,,,,,,,,,,,,,0,6,6,4,,,,,21.169206499995198,,,,,,,,,,,,,,,,,,,,,,,,,,,,,,,,,,,,,,,,,,,,,,,,,,,,21.160828208026942,21.169206499995198,21.655136791989207,None,0,,,21.657080332981423,21.9530115420348,3,0.6639121999964118,0.3307978871447393,21.66901512502227,,,,,,,,,,,,,,,,,,,,,,,,2025-12-30_18h49.28.266,4_calibr_sum,,2025.1.1,121.18794531592023,2025-12-30 18h49.33.102201 +0400,
,7,7,0,,,,0.17,0.18,right,0.5,0.2,-0.2,-0.22,0.2,0.18,7,45,0.5,,,,,right,1,0.46118995803408325,None,,,,,,,,,,,,,0,7,7,2,,,,,21.961332875012886,,,,,,,,,,,,,,,,,,,,,,,,,,,,,,,,,,,,,,,,,,,,,,,,,,,,21.953695250034798,21.961332875012886,22.436582625028677,right,1,0.46118995803408325,None,22.438333875034004,22.73499237501528,4,0.630125159669357,0.3112831330474394,,,,,,,,,,,,,,,,,,,,,,,,,2025-12-30_18h49.28.266,4_calibr_sum,,2025.1.1,121.18794531592023,2025-12-30 18h49.33.102201 +0400,
,8,8,0,,,,0.23,0.17,right,0.52,0.2,-0.3,-0.22,0.3,0.18,36,10,1.5,,,,,right,1,1.4452567920088768,None,,,,,,,,,,,,,0,8,8,29,,,,,22.74322254199069,,,,,,,,,,,,,,,,,,,,,,,,,,,,,,,,,,,,,,,,,,,,,,,,,,,,22.735793250030838,22.74322254199069,24.194750000024214,right,1,1.4452567920088768,None,24.194847374979872,24.494040417019278,5,0.7465725357178599,0.40548080311075485,,,,,,,,,,,,,,,,,,,,,,,,,2025-12-30_18h49.28.266,4_calibr_sum,,2025.1.1,121.18794531592023,2025-12-30 18h49.33.102201 +0400,
,9,9,0,,,,0.25,0.24,left,0.8,0.17,-0.18,-0.2,0.18,0.2,25,4,1.5,,,,,right,0,0.9111578750307672,None,,,,,,,,,,,,,0,9,9,36,,,,,24.50366245798068,,,,,,,,,,,,,,,,,,,,,,,,,,,,,,,,,,,,,,,,,,,,,,,,,,,,24.49486400000751,24.50366245798068,25.42124229198089,right,0,0.9111578750307672,None,25.422746666998137,25.719663833035156,5,0.7671457031319733,0.383178330548674,,,,,,,,,,,,,,,,,,,,,,,,,2025-12-30_18h49.28.266,4_calibr_sum,,2025.1.1,121.18794531592023,2025-12-30 18h49.33.102201 +0400,
,10,10,0,,,,0.14,0.15,right,0.47,0.75,-0.2,-0.2,0.2,0.2,35,8,1.0,,,,,None,0,,,,,,,,,,,,,,,0,10,10,15,,,,,25.72912712499965,,,,,,,,,,,,,,,,,,,,,,,,,,,,,,,,,,,,,,,,,,,,,,,,,,,,25.720862374990247,25.72912712499965,26.720069083035924,None,0,,,26.722479916992597,27.018563791993074,5,0.7671457031319733,0.383178330548674,26.729478833032772,,,,,,,,,,,,,,,,,,,,,,,,2025-12-30_18h49.28.266,4_calibr_sum,,2025.1.1,121.18794531592023,2025-12-30 18h49.33.102201 +0400,
,11,11,0,,,,0.15,0.14,left,0.8,0.16,-0.3,0.15,0.3,-0.18,30,15,1.0,,,,,right,0,0.8711518329801038,None,,,,,,,,,,,,,0,11,11,11,,,,,27.027249125007074,,,,,,,,,,,,,,,,,,,,,,,,,,,,,,,,,,,,,,,,,,,,,,,,,,,,27.019409250002354,27.027249125007074,27.903854292002507,right,0,0.8711518329801038,None,27.905935499991756,28.20260529202642,5,0.7787019397817656,0.36273964027062827,,,,,,,,,,,,,,,,,,,,,,,,,2025-12-30_18h49.28.266,4_calibr_sum,,2025.1.1,121.18794531592023,2025-12-30 18h49.33.102201 +0400,
,12,12,0,,,,0.21,0.22,right,0.54,0.22,-0.2,0.21,0.2,0.18,37,7,1.5,,,,,right,1,1.0871189160388894,None,,,,,,,,,,,,,0,12,12,22,,,,,28.211112458026037,,,,,,,,,,,,,,,,,,,,,,,,,,,,,,,,,,,,,,,,,,,,,,,,,,,,28.20377120800549,28.211112458026037,29.30573658301728,right,1,1.0871189160388894,None,29.307591792021412,29.6033707500319,6,0.8095436374074779,0.3563466497291944,,,,,,,,,,,,,,,,,,,,,,,,,2025-12-30_18h49.28.266,4_calibr_sum,,2025.1.1,121.18794531592023,2025-12-30 18h49.33.102201 +0400,
,13,13,0,,,,0.16,0.15,left,0.17,0.7,-0.3,-0.22,0.3,0.18,6,47,1.5,,,,,right,0,1.0903190840035677,None,,,,,,,,,,,,,0,13,13,20,,,,,29.61218820803333,,,,,,,,,,,,,,,,,,,,,,,,,,,,,,,,,,,,,,,,,,,,,,,,,,,,29.60452858300414,29.61218820803333,30.721414832980372,right,0,1.0903190840035677,None,30.723923125013243,31.020366707991343,6,0.8350686780071225,0.34921957074046445,,,,,,,,,,,,,,,,,,,,,,,,,2025-12-30_18h49.28.266,4_calibr_sum,,2025.1.1,121.18794531592023,2025-12-30 18h49.33.102201 +0400,
,14,14,0,,,,0.28,0.27,left,0.13,0.85,-0.18,-0.22,0.18,0.18,5,45,1.5,,,,,right,0,0.7203275830252096,None,,,,,,,,,,,,,0,14,14,24,,,,,31.03054725000402,,,,,,,,,,,,,,,,,,,,,,,,,,,,,,,,,,,,,,,,,,,,,,,,,,,,31.02150741702644,31.03054725000402,31.753922417003196,right,0,0.7203275830252096,None,31.754025292000733,32.05206708301557,6,0.825506920091963,0.33585286793155517,,,,,,,,,,,,,,,,,,,,,,,,,2025-12-30_18h49.28.266,4_calibr_sum,,2025.1.1,121.18794531592023,2025-12-30 18h49.33.102201 +0400,
,15,15,0,,,,0.18,0.19,right,0.51,0.8,-0.2,-0.2,0.2,0.2,45,3,0.5,,,,,None,0,,,,,,,,,,,,,,,0,15,15,3,,,,,32.06239049998112,,,,,,,,,,,,,,,,,,,,,,,,,,,,,,,,,,,,,,,,,,,,,,,,,,,,32.053208541998174,32.06239049998112,32.55270212498726,None,0,,,32.55583966698032,32.85293716698652,6,0.825506920091963,0.33585286793155517,32.562813792028464,,,,,,,,,,,,,,,,,,,,,,,,2025-12-30_18h49.28.266,4_calibr_sum,,2025.1.1,121.18794531592023,2025-12-30 18h49.33.102201 +0400,
,16,16,0,,,,0.21,0.2,left,0.16,0.7,-0.18,0.15,0.18,-0.18,5,45,1.0,,,,,right,0,0.155438958958257,None,,,,,,,,,,,,,0,16,16,18,,,,,32.86242445802782,,,,,,,,,,,,,,,,,,,,,,,,,,,,,,,,,,,,,,,,,,,,,,,,,,,,32.85411141702207,32.86242445802782,33.038043625012506,right,0,0.155438958958257,None,33.04039725003531,33.33711595798377,6,0.7739632307739857,0.36878376867559615,,,,,,,,,,,,,,,,,,,,,,,,,2025-12-30_18h49.28.266,4_calibr_sum,,2025.1.1,121.18794531592023,2025-12-30 18h49.33.102201 +0400,
,17,17,0,,,,0.12,0.13,right,0.45,0.85,-0.2,0.0,0.2,0.2,5,10,1.0,,,,,None,0,,,,,,,,,,,,,,,0,17,17,12,,,,,33.345758332987316,,,,,,,,,,,,,,,,,,,,,,,,,,,,,,,,,,,,,,,,,,,,,,,,,,,,33.33829074999085,33.345758332987316,34.335213291982654,None,0,,,34.337704583012965,34.6275345000322,6,0.7739632307739857,0.36878376867559615,34.34294816700276,,,,,,,,,,,,,,,,,,,,,,,,2025-12-30_18h49.28.266,4_calibr_sum,,2025.1.1,121.18794531592023,2025-12-30 18h49.33.102201 +0400,
,18,18,0,,,,0.14,0.13,left,0.15,0.5,-0.3,0.21,0.3,0.18,45,5,0.7,,,,,None,0,,,,,,,,,,,,,,,0,18,18,8,,,,,34.63873416703427,,,,,,,,,,,,,,,,,,,,,,,,,,,,,,,,,,,,,,,,,,,,,,,,,,,,34.6288431250141,34.63873416703427,35.33648458303651,None,0,,,35.3366395420162,35.63686366699403,6,0.7739632307739857,0.36878376867559615,35.352322291990276,,,,,,,,,,,,,,,,,,,,,,,,2025-12-30_18h49.28.266,4_calibr_sum,,2025.1.1,121.18794531592023,2025-12-30 18h49.33.102201 +0400,
,19,19,0,,,,0.14,0.13,left,0.15,0.5,-0.3,0.21,0.3,0.18,45,5,0.5,,,,,None,0,,,,,,,,,,,,,,,0,19,19,0,,,,,35.64621320803417,,,,,,,,,,,,,,,,,,,,,,,,,,,,,,,,,,,,,,,,,,,,,,,,,,,,35.63801966700703,35.64621320803417,36.13596266700188,None,0,,,36.13610449997941,36.42740733298706,6,0.7739632307739857,0.36878376867559615,36.14333795802668,,,,,,,,,,,,,,,,,,,,,,,,2025-12-30_18h49.28.266,4_calibr_sum,,2025.1.1,121.18794531592023,2025-12-30 18h49.33.102201 +0400,
,20,20,0,,,,0.26,0.25,left,0.25,0.25,-0.18,0.21,0.18,0.18,3,45,1.5,,,,,None,0,,,,,,,,,,,,,,,0,20,20,37,,,,,36.43710670800647,,,,,,,,,,,,,,,,,,,,,,,,,,,,,,,,,,,,,,,,,,,,,,,,,,,,36.42788166698301,36.43710670800647,37.92258437501732,None,0,,,37.92265787499491,38.219923667027615,6,0.7739632307739857,0.36878376867559615,37.935824708023574,,,,,,,,,,,,,,,,,,,,,,,,2025-12-30_18h49.28.266,4_calibr_sum,,2025.1.1,121.18794531592023,2025-12-30 18h49.33.102201 +0400,
,21,21,0,,,,0.23,0.22,left,0.6,0.15,-0.18,-0.2,0.18,0.2,30,15,1.5,,,,,right,0,0.5113702089875005,None,,,,,,,,,,,,,0,21,21,39,,,,,38.23052137502236,,,,,,,,,,,,,,,,,,,,,,,,,,,,,,,,,,,,,,,,,,,,,,,,,,,,38.221035333001055,38.23052137502236,38.755531708011404,right,0,0.5113702089875005,None,38.75814845802961,39.05159225000534,6,0.7552065863606653,0.361746637427098,,,,,,,,,,,,,,,,,,,,,,,,,2025-12-30_18h49.28.266,4_calibr_sum,,2025.1.1,121.18794531592023,2025-12-30 18h49.33.102201 +0400,
,22,22,0,,,,0.16,0.17,right,0.49,0.78,-0.2,0.15,0.2,-0.18,30,5,1.0,,,,,None,0,,,,,,,,,,,,,,,0,22,22,17,,,,,39.062656291993335,,,,,,,,,,,,,,,,,,,,,,,,,,,,,,,,,,,,,,,,,,,,,,,,,,,,39.05289387499215,39.062656291993335,40.05364850000478,None,0,,,40.05746420798823,40.35328062501503,6,0.7552065863606653,0.361746637427098,40.06566616700729,,,,,,,,,,,,,,,,,,,,,,,,2025-12-30_18h49.28.266,4_calibr_sum,,2025.1.1,121.18794531592023,2025-12-30 18h49.33.102201 +0400,
,23,23,0,,,,0.15,0.16,right,0.48,0.15,-0.2,0.21,0.2,0.18,9,25,1.0,,,,,None,0,,,,,,,,,,,,,,,0,23,23,16,,,,,40.36306554201292,,,,,,,,,,,,,,,,,,,,,,,,,,,,,,,,,,,,,,,,,,,,,,,,,,,,40.35451566701522,40.36306554201292,41.353778708027676,None,0,,,41.353830708016176,41.65265674999682,6,0.7552065863606653,0.361746637427098,41.36859775002813,,,,,,,,,,,,,,,,,,,,,,,,2025-12-30_18h49.28.266,4_calibr_sum,,2025.1.1,121.18794531592023,2025-12-30 18h49.33.102201 +0400,
,24,24,0,,,,0.24,0.23,left,0.7,0.16,-0.18,0.2,0.18,-0.2,6,47,1.5,,,,,right,0,0.9317308749887161,None,,,,,,,,,,,,,0,24,24,35,,,,,41.662135042017326,,,,,,,,,,,,,,,,,,,,,,,,,,,,,,,,,,,,,,,,,,,,,,,,,,,,41.65395545802312,41.662135042017326,42.59552070801146,right,0,0.9317308749887161,None,42.59754066698952,42.89364091702737,6,0.766974872269202,0.35224350023193096,,,,,,,,,,,,,,,,,,,,,,,,,2025-12-30_18h49.28.266,4_calibr_sum,,2025.1.1,121.18794531592023,2025-12-30 18h49.33.102201 +0400,
,25,25,0,,,,0.25,0.26,right,0.54,0.22,-0.3,0.2,0.3,-0.2,37,7,1.5,,,,,None,0,,,,,,,,,,,,,,,0,25,25,26,,,,,42.90395750000607,,,,,,,,,,,,,,,,,,,,,,,,,,,,,,,,,,,,,,,,,,,,,,,,,,,,42.894283708010335,42.90395750000607,44.40292237501126,None,0,,,44.40618120803265,44.70338212500792,6,0.766974872269202,0.35224350023193096,44.418895124981645,,,,,,,,,,,,,,,,,,,,,,,,2025-12-30_18h49.28.266,4_calibr_sum,,2025.1.1,121.18794531592023,2025-12-30 18h49.33.102201 +0400,
,26,26,0,,,,0.12,0.13,right,0.45,0.85,-0.2,0.0,0.2,0.2,5,10,1.5,,,,,right,1,0.6722387079498731,None,,,,,,,,,,,,,0,26,26,28,,,,,44.71280491701327,,,,,,,,,,,,,,,,,,,,,,,,,,,,,,,,,,,,,,,,,,,,,,,,,,,,44.704579333018046,44.71280491701327,45.387681458028965,right,1,0.6722387079498731,None,45.39023704198189,45.68548645800911,7,0.761053861999244,0.34182837971549257,,,,,,,,,,,,,,,,,,,,,,,,,2025-12-30_18h49.28.266,4_calibr_sum,,2025.1.1,121.18794531592023,2025-12-30 18h49.33.102201 +0400,
,27,27,0,,,,0.13,0.14,right,0.46,0.25,-0.2,0.2,0.2,-0.2,10,25,1.0,,,,,None,0,,,,,,,,,,,,,,,0,27,27,14,,,,,45.69647787499707,,,,,,,,,,,,,,,,,,,,,,,,,,,,,,,,,,,,,,,,,,,,,,,,,,,,45.6868494169903,45.69647787499707,46.67957087501418,None,0,,,46.68194879201474,46.97817479202058,7,0.761053861999244,0.34182837971549257,46.68895654199878,,,,,,,,,,,,,,,,,,,,,,,,2025-12-30_18h49.28.266,4_calibr_sum,,2025.1.1,121.18794531592023,2025-12-30 18h49.33.102201 +0400,
,28,28,0,,,,0.2,0.21,left,0.15,0.6,-0.3,0.21,0.3,0.18,6,47,1.5,,,,,right,0,0.39681133296107873,None,,,,,,,,,,,,,0,28,28,33,,,,,46.98841558303684,,,,,,,,,,,,,,,,,,,,,,,,,,,,,,,,,,,,,,,,,,,,,,,,,,,,46.979315917007625,46.98841558303684,47.387339583016,right,0,0.39681133296107873,None,47.38960749999387,47.686467583000194,7,0.7396278308793519,0.34251789193803334,,,,,,,,,,,,,,,,,,,,,,,,,2025-12-30_18h49.28.266,4_calibr_sum,,2025.1.1,121.18794531592023,2025-12-30 18h49.33.102201 +0400,
,29,29,0,,,,0.26,0.27,right,0.15,0.5,-0.3,-0.2,0.3,0.2,5,45,1.0,,,,,None,0,,,,,,,,,,,,,,,0,29,29,10,,,,,47.69543204200454,,,,,,,,,,,,,,,,,,,,,,,,,,,,,,,,,,,,,,,,,,,,,,,,,,,,47.68695462500909,47.69543204200454,48.685944958007894,None,0,,,48.68929270800436,48.98671650001779,7,0.7396278308793519,0.34251789193803334,48.696008750004694,,,,,,,,,,,,,,,,,,,,,,,,2025-12-30_18h49.28.266,4_calibr_sum,,2025.1.1,121.18794531592023,2025-12-30 18h49.33.102201 +0400,
,30,30,0,,,,0.24,0.25,right,0.13,0.85,-0.3,-0.2,0.3,0.2,0,45,1.5,,,,,None,0,,,,,,,,,,,,,,,0,30,30,25,,,,,48.996077458024956,,,,,,,,,,,,,,,,,,,,,,,,,,,,,,,,,,,,,,,,,,,,,,,,,,,,48.987883333000354,48.996077458024956,50.48695500002941,None,0,,,50.487097917008214,50.78662883298239,7,0.7396278308793519,0.34251789193803334,50.49500304198591,,,,,,,,,,,,,,,,,,,,,,,,2025-12-30_18h49.28.266,4_calibr_sum,,2025.1.1,121.18794531592023,2025-12-30 18h49.33.102201 +0400,
,31,31,0,,,,0.18,0.17,left,0.4,0.19,-0.3,0.2,0.3,-0.2,45,5,0.7,,,,,None,0,,,,,,,,,,,,,,,0,31,31,6,,,,,50.79701316700084,,,,,,,,,,,,,,,,,,,,,,,,,,,,,,,,,,,,,,,,,,,,,,,,,,,,50.78780133300461,50.79701316700084,51.48641487502027,None,0,,,51.48649845801992,51.77697499998612,7,0.7396278308793519,0.34251789193803334,51.492731207981706,,,,,,,,,,,,,,,,,,,,,,,,2025-12-30_18h49.28.266,4_calibr_sum,,2025.1.1,121.18794531592023,2025-12-30 18h49.33.102201 +0400,
,32,32,0,,,,0.13,0.14,right,0.46,0.25,-0.2,0.2,0.2,-0.2,10,25,1.0,,,,,None,0,,,,,,,,,,,,,,,0,32,32,13,,,,,51.78631487500388,,,,,,,,,,,,,,,,,,,,,,,,,,,,,,,,,,,,,,,,,,,,,,,,,,,,51.77780112501932,51.78631487500388,52.76939912501257,None,0,,,52.76947979198303,53.060998792003375,7,0.7396278308793519,0.34251789193803334,52.77602724998724,,,,,,,,,,,,,,,,,,,,,,,,2025-12-30_18h49.28.266,4_calibr_sum,,2025.1.1,121.18794531592023,2025-12-30 18h49.33.102201 +0400,
,33,33,0,,,,0.22,0.21,left,0.17,0.8,-0.18,-0.22,0.18,0.18,45,5,1.0,,,,,right,0,0.7173251250060275,None,,,,,,,,,,,,,0,33,33,19,,,,,53.071602749987505,,,,,,,,,,,,,,,,,,,,,,,,,,,,,,,,,,,,,,,,,,,,,,,,,,,,53.06251841702033,53.071602749987505,53.79074804199627,right,0,0.7173251250060275,None,53.792809750011656,54.08846679201815,7,0.7383887916641672,0.332906759036767,,,,,,,,,,,,,,,,,,,,,,,,,2025-12-30_18h49.28.266,4_calibr_sum,,2025.1.1,121.18794531592023,2025-12-30 18h49.33.102201 +0400,
,34,34,0,,,,0.16,0.15,left,0.17,0.7,-0.3,-0.22,0.3,0.18,6,47,1.5,,,,,None,0,,,,,,,,,,,,,,,0,34,34,27,,,,,54.10174279200146,,,,,,,,,,,,,,,,,,,,,,,,,,,,,,,,,,,,,,,,,,,,,,,,,,,,54.08986270800233,54.10174279200146,55.58634845801862,None,0,,,55.58954008301953,55.88576366699999,7,0.7383887916641672,0.332906759036767,55.60251458303537,,,,,,,,,,,,,,,,,,,,,,,,2025-12-30_18h49.28.266,4_calibr_sum,,2025.1.1,121.18794531592023,2025-12-30 18h49.33.102201 +0400,
,35,35,0,,,,0.17,0.16,left,0.3,0.18,-0.3,-0.2,0.3,0.2,5,45,1.5,,,,,right,0,0.7616383749991655,None,,,,,,,,,,,,,0,35,35,21,,,,,55.89461212500464,,,,,,,,,,,,,,,,,,,,,,,,,,,,,,,,,,,,,,,,,,,,,,,,,,,,55.88626691699028,55.89461212500464,56.66326108301291,right,0,0.7616383749991655,None,56.66493166703731,56.96037770801922,7,0.7396124539449566,0.32406923215082106,,,,,,,,,,,,,,,,,,,,,,,,,2025-12-30_18h49.28.266,4_calibr_sum,,2025.1.1,121.18794531592023,2025-12-30 18h49.33.102201 +0400,
,36,36,0,,,,0.27,0.26,left,0.52,0.2,-0.18,0.15,0.18,-0.18,20,4,1.5,,,,,None,0,,,,,,,,,,,,,,,0,36,36,38,,,,,56.97076370799914,,,,,,,,,,,,,,,,,,,,,,,,,,,,,,,,,,,,,,,,,,,,,,,,,,,,56.96129791700514,56.97076370799914,58.45878691703547,None,0,,,58.46134662500117,58.75409279199084,7,0.7396124539449566,0.32406923215082106,58.468226375000086,,,,,,,,,,,,,,,,,,,,,,,,2025-12-30_18h49.28.266,4_calibr_sum,,2025.1.1,121.18794531592023,2025-12-30 18h49.33.102201 +0400,
,37,37,0,,,,0.19,0.2,left,0.5,0.2,-0.3,-0.2,0.3,0.2,30,15,1.5,,,,,None,0,,,,,,,,,,,,,,,0,37,37,32,,,,,58.767438417009544,,,,,,,,,,,,,,,,,,,,,,,,,,,,,,,,,,,,,,,,,,,,,,,,,,,,58.75551708298735,58.767438417009544,60.2525700830156,None,0,,,60.25268654199317,60.54525270801969,7,0.7396124539449566,0.32406923215082106,60.25899887498235,,,,,,,,,,,,,,,,,,,,,,,,2025-12-30_18h49.28.266,4_calibr_sum,,2025.1.1,121.18794531592023,2025-12-30 18h49.33.102201 +0400,
,38,38,0,,,,0.15,0.16,right,0.48,0.15,-0.2,0.21,0.2,0.18,9,25,0.7,,,,,None,0,,,,,,,,,,,,,,,0,38,38,5,,,,,60.55572587501956,,,,,,,,,,,,,,,,,,,,,,,,,,,,,,,,,,,,,,,,,,,,,,,,,,,,60.54626441700384,60.55572587501956,61.244621541991364,None,0,,,61.24469387502177,61.53789062501164,7,0.7396124539449566,0.32406923215082106,61.25229295803001,,,,,,,,,,,,,,,,,,,,,,,,2025-12-30_18h49.28.266,4_calibr_sum,,2025.1.1,121.18794531592023,2025-12-30 18h49.33.102201 +0400,
,39,39,0,,,,0.15,0.14,left,0.8,0.16,-0.3,0.15,0.3,-0.18,30,15,0.5,,,,,None,0,,,,,,,,,,,,,,,0,39,39,1,,,,,61.552139958017506,,,,,,,,,,,,,,,,,,,,,,,,,,,,,,,,,,,,,,,,,,,,,,,,,,,,61.53885095799342,61.552139958017506,62.035788125009276,None,0,,,62.035913292027544,62.33624224999221,7,0.7396124539449566,0.32406923215082106,62.05169150000438,,,,,,,,,,,,,,,,,,,,,,,,2025-12-30_18h49.28.266,4_calibr_sum,,2025.1.1,121.18794531592023,2025-12-30 18h49.33.102201 +0400,
,0,0,0,,,,,,,,,,,,,,,,,,,,,,,,Это было сложно?,4.884372177055104,11.95383212500019,"[(np.float64(4.884372177055104), 11.95383212500019)]",,,,,,,,,,,,,0,0,0,0,62.36871466698358,,,,,,,,,,,,,,,,,,,,,,,,,,,,,,,,,,,,,,,,,,,,,,,,,,,,,,,,,,,,,,,,,62.353375000006054,62.36871466698358,62.36871466698358,74.30794725002488,4.884372177055104,11.95383212500019,"[(np.float64(4.884372177055104), 11.95383212500019)]",,,,,,,,,,,,,,,,,2025-12-30_18h49.28.266,4_calibr_sum,,2025.1.1,121.18794531592023,2025-12-30 18h49.33.102201 +0400,
,1,1,0,,,,,,,,,,,,,,,,,,,,,,,,Вы могли контролировать ситуацию?,4.884372177055104,0.10960633400827646,"[(np.float64(4.884372177055104), 0.10960633400827646)]",,,,,,,,,,,,,0,1,1,1,74.31736087502213,,,,,,,,,,,,,,,,,,,,,,,,,,,,,,,,,,,,,,,,,,,,,,,,,,,,,,,,,,,,,,,,,74.30996783298906,74.31736087502213,74.31736087502213,74.42521116702119,4.884372177055104,0.10960633400827646,"[(np.float64(4.884372177055104), 0.10960633400827646)]",,,,,,,,,,,,,,,,,2025-12-30_18h49.28.266,4_calibr_sum,,2025.1.1,121.18794531592023,2025-12-30 18h49.33.102201 +0400,
,2,2,0,,,,,,,,,,,,,,,,,,,,,,,,Насколько результат зависел от Вас?,4.884372177055104,0.11805454199202359,"[(np.float64(4.884372177055104), 0.11805454199202359)]",,,,,,,,,,,,,0,2,2,2,74.43524308298947,,,,,,,,,,,,,,,,,,,,,,,,,,,,,,,,,,,,,,,,,,,,,,,,,,,,,,,,,,,,,,,,,74.42768033302855,74.43524308298947,74.43524308298947,74.5516081249807,4.884372177055104,0.11805454199202359,"[(np.float64(4.884372177055104), 0.11805454199202359)]",,,,,,,,,,,,,,,,,2025-12-30_18h49.28.266,4_calibr_sum,,2025.1.1,121.18794531592023,2025-12-30 18h49.33.102201 +0400,
,3,3,0,,,,,,,,,,,,,,,,,,,,,,,,Насколько успешно получалось сравнивать квадраты?,4.884372177055104,0.12565424997592345,"[(np.float64(4.884372177055104), 0.12565424997592345)]",,,,,,,,,,,,,0,3,3,3,74.56083491700701,,,,,,,,,,,,,,,,,,,,,,,,,,,,,,,,,,,,,,,,,,,,,,,,,,,,,,,,,,,,,,,,,74.55382299999474,74.56083491700701,74.56083491700701,74.68698883301113,4.884372177055104,0.12565424997592345,"[(np.float64(4.884372177055104), 0.12565424997592345)]",,,,,,,,,,,,,,,,,2025-12-30_18h49.28.266,4_calibr_sum,,2025.1.1,121.18794531592023,2025-12-30 18h49.33.102201 +0400,
,4,4,0,,,,,,,,,,,,,,,,,,,,,,,,Вы довольны результатом?,4.884372177055104,0.12088620802387595,"[(np.float64(4.884372177055104), 0.12088620802387595)]",,,,,,,,,,,,,0,4,4,4,74.69776225002715,,,,,,,,,,,,,,,,,,,,,,,,,,,,,,,,,,,,,,,,,,,,,,,,,,,,,,,,,,,,,,,,,74.68978845799575,74.69776225002715,74.69776225002715,74.81663008301985,4.884372177055104,0.12088620802387595,"[(np.float64(4.884372177055104), 0.12088620802387595)]",,,,,,,,,,,,,,,,,2025-12-30_18h49.28.266,4_calibr_sum,,2025.1.1,121.18794531592023,2025-12-30 18h49.33.102201 +0400,
,,,,,,,,,,,,,,,,,,,,,,,,,,,,,,,,,,,,,,,,,,,,,,,,,,,,,,,,,,,,,,,,,,,,,,,,,,,,,,,,,,,,,,,,,,,,,,,,,,,,,,,,,,,,,,,,,,,,,,,74.81900558300549,74.82374104199698,74.82374104199698,76.12454508303199,76.12454508303199,76.11061508301646,None,,,,,,,,,,2025-12-30_18h49.28.266,4_calibr_sum,,2025.1.1,121.18794531592023,2025-12-30 18h49.33.102201 +0400,
,,,,,,,,,,,,,,,,,,,,,,,,,,,,,,,,,,,,,,,,,,,,,,,,,,,,,,,,,,,,,,,,,,,,,,,,,,,,,,,,,,,,,,,,,,,,,,,,,,,,,,,,,,,,,,,,,,,,,,,,,,,,,,76.1126897080103,76.12454508303199,81.11823716701474,85.904078749998,,,,,,2025-12-30_18h49.28.266,4_calibr_sum,,2025.1.1,121.18794531592023,2025-12-30 18h49.33.102201 +0400,
,,,,,,,,,,,,,,,,,,,,,,,,,,,,,,,,,,,,,,,,,,,,,,,,,,,,,,,,,,,,,,,,,,,,,,,,,,,,,,,,,,,,,,,,,,,,,,,,,,,,,,,,,,,,,,,,,,,,,,,,,,,,,,,,,,85.90423058299348,85.9152332500089,,,,,,,,,,
