Text,thisN,thisTrialN,thisRepN,BJW_slider.response,BJW_slider.rt,BJW_slider.history,w1,w2,corr_answ,op1,op2,xPos1,yPos1,xPos2,yPos2,or1,or2,time,resp_tren.keys,resp_tren.corr,resp_tren.rt,resp_tren.duration,resp.keys,resp.corr,resp.rt,resp.duration,q_sl,sl_h.response,sl_h.rt,sl_h.history,BJW_trials.thisRepN,BJW_trials.thisTrialN,BJW_trials.thisN,BJW_trials.thisIndex,trials.thisRepN,trials.thisTrialN,trials.thisN,trials.thisIndex,loop_L.thisRepN,loop_L.thisTrialN,loop_L.thisN,loop_L.thisIndex,l_slid.thisRepN,l_slid.thisTrialN,l_slid.thisN,l_slid.thisIndex,thisRow.t,notes,Main_instr.started,main_instr_text.started,main_instr_key.started,Main_instr.stopped,main_instr_key.keys,main_instr_key.rt,main_instr_key.duration,instr_BJW.started,BJW_inst_text.started,BJW_key_resp.started,instr_BJW.stopped,BJW_key_resp.keys,BJW_key_resp.rt,BJW_key_resp.duration,BJW.started,BJW_text.started,BJW.stopped,BJW_trials.BJW_slider.response,BJW_trials.BJW_slider.rt,BJW_trials.BJW_slider.history,instr.started,instr.stopped,resp_instr.keys,resp_instr.rt,resp_instr.duration,instr_2.started,text_3.started,key_resp.started,instr_2.stopped,key_resp.keys,key_resp.rt,key_resp.duration,tren.started,pol_1.started,pol_2.started,text_tren.started,tren.stopped,trials.resp_tren.keys,trials.resp_tren.corr,trials.resp_tren.rt,trials.resp_tren.duration,fb_tren.started,text_fb_tren.started,text_fb_tren.stopped,fb_tren.stopped,instr3.started,instr3.stopped,reesp_instr.keys,reesp_instr.rt,reesp_instr.duration,task_L.started,resp.started,task_L.stopped,loop_L.resp.keys,loop_L.resp.corr,loop_L.resp.rt,loop_L.resp.duration,fb_task.started,fb_task.stopped,corr_sum,mean_rt,sd_rt,slider.started,sl_h.started,text_sl.started,slider.stopped,l_slid.sl_h.response,l_slid.sl_h.rt,l_slid.sl_h.history,fin_sum.started,text_5.started,key_resp_2.started,text_5.stopped,key_resp_2.stopped,fin_sum.stopped,key_resp_2.keys,Get_points.started,text_6.started,textbox.started,Get_points.stopped,textbox.text,thanks.started,text_th.started,text_th.stopped,thanks.stopped,name,gender,ag,date,expName,expVersion,psychopyVersion,frameRate,expStart,
,,,,,,,,,,,,,,,,,,,,,,,,,,,,,,,,,,,,,,,,,,,,,,,,,0.015252000011969358,0.022917459020391107,0.022917459020391107,0.6169813750311732,space,0.5631032090168446,None,,,,,,,,,,,,,,,,,,,,,,,,,,,,,,,,,,,,,,,,,,,,,,,,,,,,,,,,,,,,,,,,,,,,,,,,,,,,,,,,,,2026-02-02_20h58.59.113,4_calibr_sum,,2025.1.1,None,2026-02-02 20h59.12.557721 +0400,
,,,,,,,,,,,,,,,,,,,,,,,,,,,,,,,,,,,,,,,,,,,,,,,,,,,,,,,,0.6170398340327665,0.6418092499952763,0.6418092499952763,1.12173191702459,space,0.4774517079931684,None,,,,,,,,,,,,,,,,,,,,,,,,,,,,,,,,,,,,,,,,,,,,,,,,,,,,,,,,,,,,,,,,,,,,,,,,,,,2026-02-02_20h58.59.113,4_calibr_sum,,2025.1.1,None,2026-02-02 20h59.12.557721 +0400,
"Я считаю, что, по большому счету, заслуживаю того, что происходит со мной.",0,0,0,3.0,1.0221158749773167,"[(3.0, 1.0221158749773167)]",,,,,,,,,,,,,,,,,,,,,,,,,0,0,0,0,,,,,,,,,,,,,1.17728895903565,,,,,,,,,,,,,,,,1.1421505000325851,1.17728895903565,2.1781029170379043,3.0,1.0221158749773167,"[(3.0, 1.0221158749773167)]",,,,,,,,,,,,,,,,,,,,,,,,,,,,,,,,,,,,,,,,,,,,,,,,,,,,,,,,,,,,,,,,,,,,,2026-02-02_20h58.59.113,4_calibr_sum,,2025.1.1,None,2026-02-02 20h59.12.557721 +0400,
"Как правило, жизнь ко мне справедлива.",1,1,0,3.0,0.1032080830191262,"[(3.0, 0.1032080830191262)]",,,,,,,,,,,,,,,,,,,,,,,,,0,1,1,1,,,,,,,,,,,,,2.194718417013064,,,,,,,,,,,,,,,,2.181505875021685,2.194718417013064,2.2962621669867076,3.0,0.1032080830191262,"[(3.0, 0.1032080830191262)]",,,,,,,,,,,,,,,,,,,,,,,,,,,,,,,,,,,,,,,,,,,,,,,,,,,,,,,,,,,,,,,,,,,,,2026-02-02_20h58.59.113,4_calibr_sum,,2025.1.1,None,2026-02-02 20h59.12.557721 +0400,
"Я верю, что обычно получаю то, что заслуживаю.",2,2,0,3.0,0.13343383400933817,"[(3.0, 0.13343383400933817)]",,,,,,,,,,,,,,,,,,,,,,,,,0,2,2,2,,,,,,,,,,,,,2.307900541985873,,,,,,,,,,,,,,,,2.299148917023558,2.307900541985873,2.4402567500364967,3.0,0.13343383400933817,"[(3.0, 0.13343383400933817)]",,,,,,,,,,,,,,,,,,,,,,,,,,,,,,,,,,,,,,,,,,,,,,,,,,,,,,,,,,,,,,,,,,,,,2026-02-02_20h58.59.113,4_calibr_sum,,2025.1.1,None,2026-02-02 20h59.12.557721 +0400,
В моей жизни в общем и целом всё происходит справедливо.,3,3,0,3.0,0.12261145899537951,"[(3.0, 0.12261145899537951)]",,,,,,,,,,,,,,,,,,,,,,,,,0,3,3,3,,,,,,,,,,,,,2.4537559170275927,,,,,,,,,,,,,,,,2.443941750039812,2.4537559170275927,2.5726514169946313,3.0,0.12261145899537951,"[(3.0, 0.12261145899537951)]",,,,,,,,,,,,,,,,,,,,,,,,,,,,,,,,,,,,,,,,,,,,,,,,,,,,,,,,,,,,,,,,,,,,,2026-02-02_20h58.59.113,4_calibr_sum,,2025.1.1,None,2026-02-02 20h59.12.557721 +0400,
"В моей жизни несправедливость – скорее исключение, чем правило.",4,4,0,3.0,0.12190558400470763,"[(3.0, 0.12190558400470763)]",,,,,,,,,,,,,,,,,,,,,,,,,0,4,4,4,,,,,,,,,,,,,2.5846925000078045,,,,,,,,,,,,,,,,2.57540600001812,2.5846925000078045,2.7025938340229914,3.0,0.12190558400470763,"[(3.0, 0.12190558400470763)]",,,,,,,,,,,,,,,,,,,,,,,,,,,,,,,,,,,,,,,,,,,,,,,,,,,,,,,,,,,,,,,,,,,,,2026-02-02_20h58.59.113,4_calibr_sum,,2025.1.1,None,2026-02-02 20h59.12.557721 +0400,
"Я считаю, что в целом в моей жизни всё справедливо.",5,5,0,3.0,0.12620616698404774,"[(3.0, 0.12620616698404774)]",,,,,,,,,,,,,,,,,,,,,,,,,0,5,5,5,,,,,,,,,,,,,2.7278067499864846,,,,,,,,,,,,,,,,2.704401750001125,2.7278067499864846,2.838820917007979,3.0,0.12620616698404774,"[(3.0, 0.12620616698404774)]",,,,,,,,,,,,,,,,,,,,,,,,,,,,,,,,,,,,,,,,,,,,,,,,,,,,,,,,,,,,,,,,,,,,,2026-02-02_20h58.59.113,4_calibr_sum,,2025.1.1,None,2026-02-02 20h59.12.557721 +0400,
"Я думаю, что важные решения, которые касаются меня, обычно справедливы.",6,6,0,3.0,0.12445879098959267,"[(3.0, 0.12445879098959267)]",,,,,,,,,,,,,,,,,,,,,,,,,0,6,6,6,,,,,,,,,,,,,2.8514253339963034,,,,,,,,,,,,,,,,2.841605417022947,2.8514253339963034,2.972096999990754,3.0,0.12445879098959267,"[(3.0, 0.12445879098959267)]",,,,,,,,,,,,,,,,,,,,,,,,,,,,,,,,,,,,,,,,,,,,,,,,,,,,,,,,,,,,,,,,,,,,,2026-02-02_20h58.59.113,4_calibr_sum,,2025.1.1,None,2026-02-02 20h59.12.557721 +0400,
"Я считаю, что в целом мир справедлив.",7,7,0,3.0,0.11342479201266542,"[(3.0, 0.11342479201266542)]",,,,,,,,,,,,,,,,,,,,,,,,,0,7,7,7,,,,,,,,,,,,,2.9819777500233613,,,,,,,,,,,,,,,,2.973839209007565,2.9819777500233613,3.0937331670429558,3.0,0.11342479201266542,"[(3.0, 0.11342479201266542)]",,,,,,,,,,,,,,,,,,,,,,,,,,,,,,,,,,,,,,,,,,,,,,,,,,,,,,,,,,,,,,,,,,,,,2026-02-02_20h58.59.113,4_calibr_sum,,2025.1.1,None,2026-02-02 20h59.12.557721 +0400,
"Я считаю, что, по большому счету, люди получают то, что заслуживают.",8,8,0,3.0,0.13397583301411942,"[(3.0, 0.13397583301411942)]",,,,,,,,,,,,,,,,,,,,,,,,,0,8,8,8,,,,,,,,,,,,,3.10313641699031,,,,,,,,,,,,,,,,3.095592833997216,3.10313641699031,3.235042250016704,3.0,0.13397583301411942,"[(3.0, 0.13397583301411942)]",,,,,,,,,,,,,,,,,,,,,,,,,,,,,,,,,,,,,,,,,,,,,,,,,,,,,,,,,,,,,,,,,,,,,2026-02-02_20h58.59.113,4_calibr_sum,,2025.1.1,None,2026-02-02 20h59.12.557721 +0400,
"Я уверен, что справедливость всегда побеждает несправедливость.",9,9,0,3.0,0.13371929101413116,"[(3.0, 0.13371929101413116)]",,,,,,,,,,,,,,,,,,,,,,,,,0,9,9,9,,,,,,,,,,,,,3.244417334033642,,,,,,,,,,,,,,,,3.2366810840321705,3.244417334033642,3.3771041670115665,3.0,0.13371929101413116,"[(3.0, 0.13371929101413116)]",,,,,,,,,,,,,,,,,,,,,,,,,,,,,,,,,,,,,,,,,,,,,,,,,,,,,,,,,,,,,,,,,,,,,2026-02-02_20h58.59.113,4_calibr_sum,,2025.1.1,None,2026-02-02 20h59.12.557721 +0400,
"Я убежден, что, если человек пережил несправедливость, в будущем это возместится.",10,10,0,3.0,0.1408113749930635,"[(3.0, 0.1408113749930635)]",,,,,,,,,,,,,,,,,,,,,,,,,0,10,10,10,,,,,,,,,,,,,3.3865995419910178,,,,,,,,,,,,,,,,3.379451084008906,3.3865995419910178,3.5280706670018844,3.0,0.1408113749930635,"[(3.0, 0.1408113749930635)]",,,,,,,,,,,,,,,,,,,,,,,,,,,,,,,,,,,,,,,,,,,,,,,,,,,,,,,,,,,,,,,,,,,,,2026-02-02_20h58.59.113,4_calibr_sum,,2025.1.1,None,2026-02-02 20h59.12.557721 +0400,
"Я твердо уверен, что несправедливость в самых разных жизненных ситуациях (в семье, учебе и т. д.) – скорее исключение, чем правило.",11,11,0,3.0,0.1327803329913877,"[(3.0, 0.1327803329913877)]",,,,,,,,,,,,,,,,,,,,,,,,,0,11,11,11,,,,,,,,,,,,,3.5379644589847885,,,,,,,,,,,,,,,,3.5308338750037365,3.5379644589847885,3.6681382920360193,3.0,0.1327803329913877,"[(3.0, 0.1327803329913877)]",,,,,,,,,,,,,,,,,,,,,,,,,,,,,,,,,,,,,,,,,,,,,,,,,,,,,,,,,,,,,,,,,,,,,2026-02-02_20h58.59.113,4_calibr_sum,,2025.1.1,None,2026-02-02 20h59.12.557721 +0400,
"Я думаю, что все, кто принимает важные решения, стремятся быть справедливыми.",12,12,0,3.0,0.14228566701058298,"[(3.0, 0.14228566701058298)]",,,,,,,,,,,,,,,,,,,,,,,,,0,12,12,12,,,,,,,,,,,,,3.677809791988693,,,,,,,,,,,,,,,,3.669944791996386,3.677809791988693,3.817985542002134,3.0,0.14228566701058298,"[(3.0, 0.14228566701058298)]",,,,,,,,,,,,,,,,,,,,,,,,,,,,,,,,,,,,,,,,,,,,,,,,,,,,,,,,,,,,,,,,,,,,,2026-02-02_20h58.59.113,4_calibr_sum,,2025.1.1,None,2026-02-02 20h59.12.557721 +0400,
,,,,,,,,,,,,,,,,,,,,,,,,,,,,,,,,,,,,,,,,,,,,,,,,,,,,,,,,,,,,,,,,,,,,,3.8180500000016764,4.457512749999296,space,0.6364269579644315,None,,,,,,,,,,,,,,,,,,,,,,,,,,,,,,,,,,,,,,,,,,,,,,,,,,,,,,,,,,,,,,,,2026-02-02_20h58.59.113,4_calibr_sum,,2025.1.1,None,2026-02-02 20h59.12.557721 +0400,
,,,,,,,,,,,,,,,,,,,,,,,,,,,,,,,,,,,,,,,,,,,,,,,,,,,,,,,,,,,,,,,,,,,,,,,,,,4.457569500023965,4.468610084033571,4.468610084033571,7.216806167038158,space,2.7453626659698784,None,,,,,,,,,,,,,,,,,,,,,,,,,,,,,,,,,,,,,,,,,,,,,,,,,,,,,,,,,2026-02-02_20h58.59.113,4_calibr_sum,,2025.1.1,None,2026-02-02 20h59.12.557721 +0400,
,0,0,0,,,,0.22,0.21,left,0.17,0.8,-0.18,-0.22,0.18,0.18,45,5,1.0,left,1,0.5293526669847779,None,,,,,,,,,,,,,0,0,0,0,,,,,,,,,7.242301499994937,,,,,,,,,,,,,,,,,,,,,,,,,,,,,,,,,,7.227023874991573,7.242301499994937,7.242301499994937,7.242301499994937,7.765628834022209,left,1,0.5293526669847779,None,7.76847320899833,7.7802578750415705,8.27303058403777,8.264755584008526,,,,,,,,,,,,,,,,,,,,,,,,,,,,,,,,,,,,,,,,,,,,2026-02-02_20h58.59.113,4_calibr_sum,,2025.1.1,None,2026-02-02 20h59.12.557721 +0400,
,1,1,0,,,,0.17,0.16,left,0.3,0.18,-0.3,-0.2,0.3,0.2,5,45,1.0,left,1,0.10646070900838822,None,,,,,,,,,,,,,0,1,1,2,,,,,,,,,8.27303058403777,,,,,,,,,,,,,,,,,,,,,,,,,,,,,,,,,,8.265197709028143,8.27303058403777,8.27303058403777,8.27303058403777,8.38200920901727,left,1,0.10646070900838822,None,8.382104167016223,8.390611959039234,8.889223792008124,8.879932834010106,,,,,,,,,,,,,,,,,,,,,,,,,,,,,,,,,,,,,,,,,,,,2026-02-02_20h58.59.113,4_calibr_sum,,2025.1.1,None,2026-02-02 20h59.12.557721 +0400,
,2,2,0,,,,0.21,0.22,right,0.54,0.22,-0.2,0.21,0.2,0.18,37,7,1.5,left,0,0.09737470804248005,None,,,,,,,,,,,,,0,2,2,3,,,,,,,,,8.889223792008124,,,,,,,,,,,,,,,,,,,,,,,,,,,,,,,,,,8.881103874999098,8.889223792008124,8.889223792008124,8.889223792008124,8.982613917032722,left,0,0.09737470804248005,None,8.987294375023339,8.997146584035363,9.49079662503209,9.480904292024206,,,,,,,,,,,,,,,,,,,,,,,,,,,,,,,,,,,,,,,,,,,,2026-02-02_20h58.59.113,4_calibr_sum,,2025.1.1,None,2026-02-02 20h59.12.557721 +0400,
,3,3,0,,,,0.28,0.27,left,0.13,0.85,-0.18,-0.22,0.18,0.18,5,45,1.5,left,1,0.10935291601344943,None,,,,,,,,,,,,,0,3,3,5,,,,,,,,,9.49079662503209,,,,,,,,,,,,,,,,,,,,,,,,,,,,,,,,,,9.482013459026348,9.49079662503209,9.49079662503209,9.49079662503209,9.599493374989834,left,1,0.10935291601344943,None,9.602412125037517,9.612222584022675,10.112845625029877,10.096863584010862,,,,,,,,,,,,,,,,,,,,,,,,,,,,,,,,,,,,,,,,,,,,2026-02-02_20h58.59.113,4_calibr_sum,,2025.1.1,None,2026-02-02 20h59.12.557721 +0400,
,4,4,0,,,,0.24,0.25,right,0.13,0.85,-0.3,-0.2,0.3,0.2,0,45,1.5,left,0,0.055257041996810585,None,,,,,,,,,,,,,0,4,4,6,,,,,,,,,10.112845625029877,,,,,,,,,,,,,,,,,,,,,,,,,,,,,,,,,,10.098205959016923,10.112845625029877,10.112845625029877,10.112845625029877,10.180958209035452,left,0,0.055257041996810585,None,10.18292404199019,10.191351416986436,10.6890376250376,10.67938020901056,,,,,,,,,,,,,,,,,,,,,,,,,,,,,,,,,,,,,,,,,,,,2026-02-02_20h58.59.113,4_calibr_sum,,2025.1.1,None,2026-02-02 20h59.12.557721 +0400,
,5,5,0,,,,0.16,0.15,left,0.17,0.7,-0.3,-0.22,0.3,0.18,6,47,1.0,left,1,0.09783966699615121,None,,,,,,,,,,,,,0,5,5,1,,,,,,,,,10.6890376250376,,,,,,,,,,,,,,,,,,,,,,,,,,,,,,,,,,10.680480709008407,10.6890376250376,10.6890376250376,10.6890376250376,10.7808642500313,left,1,0.09783966699615121,None,10.78293616703013,10.791635834029876,,11.281221584009472,,,,,,,,,,,,,,,,,,,,,,,,,,,,,,,,,,,,,,,,,,,,2026-02-02_20h58.59.113,4_calibr_sum,,2025.1.1,None,2026-02-02 20h59.12.557721 +0400,
,6,6,0,,,,0.22,0.23,right,0.15,0.5,-0.2,0.15,0.2,-0.18,45,3,1.5,left,0,0.0979614169918932,None,,,,,,,,,,,,,0,6,6,4,,,,,,,,,11.29223079199437,,,,,,,,,,,,,,,,,,,,,,,,,,,,,,,,,,11.282371709006839,11.29223079199437,11.29223079199437,11.29223079199437,11.392135000030976,left,0,0.0979614169918932,None,11.393590333987959,11.400242250005249,,11.896115084004123,,,,,,,,,,,,,,,,,,,,,,,,,,,,,,,,,,,,,,,,,,,,2026-02-02_20h58.59.113,4_calibr_sum,,2025.1.1,None,2026-02-02 20h59.12.557721 +0400,
,,,,,,,,,,,,,,,,,,,,,,,,,,,,,,,,,,,,,,,,,,,,,,,,,,,,,,,,,,,,,,,,,,,,,,,,,,,,,,,,,,,,,,,,,,,,,,11.896315541991498,13.266238834010437,space,1.3524361249874346,None,,,,,,,,,,,,,,,,,,,,,,,,,,,,,,,,,,,,,,,2026-02-02_20h58.59.113,4_calibr_sum,,2025.1.1,None,2026-02-02 20h59.12.557721 +0400,
,0,0,0,,,,0.14,0.13,left,0.15,0.5,-0.3,0.21,0.3,0.18,45,5,2.0,,,,,right,0,0.41931533301249146,None,,,,,,,,,,,,,0,0,0,0,,,,,13.300125375040807,,,,,,,,,,,,,,,,,,,,,,,,,,,,,,,,,,,,,,,,,,,,,,,,,,,,13.288348208996467,13.300125375040807,13.725055666989647,right,0,0.41931533301249146,None,13.72797858400736,14.021363792009652,0,0.41931533301249146,0.0,,,,,,,,,,,,,,,,,,,,,,,,,,,2026-02-02_20h58.59.113,4_calibr_sum,,2025.1.1,None,2026-02-02 20h59.12.557721 +0400,
,1,1,0,,,,0.15,0.14,left,0.8,0.16,-0.3,0.15,0.3,-0.18,30,15,1.5,,,,,right,0,0.21287954202853143,None,,,,,,,,,,,,,0,1,1,1,,,,,14.045382209005766,,,,,,,,,,,,,,,,,,,,,,,,,,,,,,,,,,,,,,,,,,,,,,,,,,,,14.022300250013359,14.045382209005766,14.267178792040795,right,0,0.21287954202853143,None,14.267270750016905,14.562425500014797,0,0.31609743752051145,0.10321789549198002,,,,,,,,,,,,,,,,,,,,,,,,,,,2026-02-02_20h58.59.113,4_calibr_sum,,2025.1.1,None,2026-02-02 20h59.12.557721 +0400,
,2,2,0,,,,0.17,0.18,right,0.5,0.2,-0.2,-0.22,0.2,0.18,7,45,1.5,,,,,right,1,0.16710549994604662,None,,,,,,,,,,,,,0,2,2,2,,,,,14.571662625006866,,,,,,,,,,,,,,,,,,,,,,,,,,,,,,,,,,,,,,,,,,,,,,,,,,,,14.563002999988385,14.571662625006866,14.748136792040896,right,1,0.16710549994604662,None,14.750774000014644,15.046585625037551,1,0.26643345832902315,0.10970708405322192,,,,,,,,,,,,,,,,,,,,,,,,,,,2026-02-02_20h58.59.113,4_calibr_sum,,2025.1.1,None,2026-02-02 20h59.12.557721 +0400,
,3,3,0,,,,0.18,0.19,right,0.51,0.8,-0.2,-0.2,0.2,0.2,45,3,0.6,,,,,right,1,0.16151037503732368,None,,,,,,,,,,,,,0,3,3,3,,,,,15.056882000004407,,,,,,,,,,,,,,,,,,,,,,,,,,,,,,,,,,,,,,,,,,,,,,,,,,,,15.047751250036526,15.056882000004407,15.222344084002543,right,1,0.16151037503732368,None,15.222449125023559,15.52017854200676,2,0.2402026875060983,0.10531330985440512,,,,,,,,,,,,,,,,,,,,,,,,,,,2026-02-02_20h58.59.113,4_calibr_sum,,2025.1.1,None,2026-02-02 20h59.12.557721 +0400,
,4,4,0,,,,0.14,0.15,right,0.47,0.75,-0.2,-0.2,0.2,0.2,35,8,1.5,,,,,right,1,0.16691029199864715,None,,,,,,,,,,,,,0,4,4,4,,,,,15.530265292036347,,,,,,,,,,,,,,,,,,,,,,,,,,,,,,,,,,,,,,,,,,,,,,,,,,,,15.520744709006976,15.530265292036347,15.700085458985996,right,1,0.16691029199864715,None,15.700172209006269,15.996445625030901,3,0.22554420840460807,0.09865190633873863,,,,,,,,,,,,,,,,,,,,,,,,,,,2026-02-02_20h58.59.113,4_calibr_sum,,2025.1.1,None,2026-02-02 20h59.12.557721 +0400,
,5,5,0,,,,0.15,0.16,right,0.48,0.15,-0.2,0.21,0.2,0.18,9,25,0.6,,,,,right,1,0.09521491703344509,None,,,,,,,,,,,,,0,5,5,5,,,,,16.006468584004324,,,,,,,,,,,,,,,,,,,,,,,,,,,,,,,,,,,,,,,,,,,,,,,,,,,,15.99759470904246,16.006468584004324,16.109065958997235,right,1,0.09521491703344509,None,16.10916058399016,16.404032542021014,4,0.20382265984274758,0.10231956743384442,,,,,,,,,,,,,,,,,,,,,,,,,,,2026-02-02_20h58.59.113,4_calibr_sum,,2025.1.1,None,2026-02-02 20h59.12.557721 +0400,
,6,6,0,,,,0.18,0.17,left,0.4,0.19,-0.3,0.2,0.3,-0.2,45,5,1.0,,,,,right,0,0.08345708396518603,None,,,,,,,,,,,,,0,6,6,6,,,,,16.429301875003148,,,,,,,,,,,,,,,,,,,,,,,,,,,,,,,,,,,,,,,,,,,,,,,,,,,,16.40517650003312,16.429301875003148,16.51707574998727,right,0,0.08345708396518603,None,16.518885541998316,16.815287709003314,4,0.1866275775745245,0.10367114156653137,,,,,,,,,,,,,,,,,,,,,,,,,,,2026-02-02_20h58.59.113,4_calibr_sum,,2025.1.1,None,2026-02-02 20h59.12.557721 +0400,
,7,7,0,,,,0.16,0.17,right,0.49,0.78,-0.2,0.15,0.2,-0.18,30,5,1.0,,,,,right,1,0.07634237501770258,None,,,,,,,,,,,,,0,7,7,7,,,,,16.829413084022235,,,,,,,,,,,,,,,,,,,,,,,,,,,,,,,,,,,,,,,,,,,,,,,,,,,,16.815829875005875,16.829413084022235,16.915584000002127,right,1,0.07634237501770258,None,16.91813279199414,17.21321891702246,5,0.17284192725492176,0.10360768059190813,,,,,,,,,,,,,,,,,,,,,,,,,,,2026-02-02_20h58.59.113,4_calibr_sum,,2025.1.1,None,2026-02-02 20h59.12.557721 +0400,
,8,8,0,,,,0.14,0.13,left,0.15,0.5,-0.3,0.21,0.3,0.18,45,5,1.5,,,,,right,0,0.04889408400049433,None,,,,,,,,,,,,,0,8,8,8,,,,,17.22255404200405,,,,,,,,,,,,,,,,,,,,,,,,,,,,,,,,,,,,,,,,,,,,,,,,,,,,17.214144167024642,17.22255404200405,17.280833000026178,right,0,0.04889408400049433,None,17.282534416997805,17.580652167031076,5,0.15906994467109647,0.10516255783304684,,,,,,,,,,,,,,,,,,,,,,,,,,,2026-02-02_20h58.59.113,4_calibr_sum,,2025.1.1,None,2026-02-02 20h59.12.557721 +0400,
,9,9,0,,,,0.2,0.21,right,0.13,0.85,-0.2,-0.2,0.2,0.2,0,45,2.5,,,,,right,1,0.07752187503501773,None,,,,,,,,,,,,,0,9,9,9,,,,,17.59227900003316,,,,,,,,,,,,,,,,,,,,,,,,,,,,,,,,,,,,,,,,,,,,,,,,,,,,17.581948875042144,17.59227900003316,17.682929125032388,right,1,0.07752187503501773,None,17.686141084006522,17.979543875029776,6,0.1509151377074886,0.10272173627092465,,,,,,,,,,,,,,,,,,,,,,,,,,,2026-02-02_20h58.59.113,4_calibr_sum,,2025.1.1,None,2026-02-02 20h59.12.557721 +0400,
,10,10,0,,,,0.26,0.27,right,0.15,0.5,-0.3,-0.2,0.3,0.2,5,45,1.0,,,,,right,1,0.052688166964799166,None,,,,,,,,,,,,,0,10,10,10,,,,,17.98867687501479,,,,,,,,,,,,,,,,,,,,,,,,,,,,,,,,,,,,,,,,,,,,,,,,,,,,17.980303584015928,17.98867687501479,18.048193541995715,right,1,0.052688166964799166,None,18.048281333991326,18.34721720899688,7,0.14198541309451684,0.10193088077360893,,,,,,,,,,,,,,,,,,,,,,,,,,,2026-02-02_20h58.59.113,4_calibr_sum,,2025.1.1,None,2026-02-02 20h59.12.557721 +0400,
,11,11,0,,,,0.15,0.14,left,0.8,0.16,-0.3,0.15,0.3,-0.18,30,15,1.5,,,,,right,0,0.06548366596689448,None,,,,,,,,,,,,,0,11,11,11,,,,,18.35622316703666,,,,,,,,,,,,,,,,,,,,,,,,,,,,,,,,,,,,,,,,,,,,,,,,,,,,18.34842012502486,18.35622316703666,18.43097733403556,right,0,0.06548366596689448,None,18.432543250033632,18.7300367919961,7,0.1356102675005483,0.09985562767714848,,,,,,,,,,,,,,,,,,,,,,,,,,,2026-02-02_20h58.59.113,4_calibr_sum,,2025.1.1,None,2026-02-02 20h59.12.557721 +0400,
,12,12,0,,,,0.12,0.13,right,0.45,0.85,-0.2,0.0,0.2,0.2,5,10,1.0,,,,,right,1,0.020776166988071054,None,,,,,,,,,,,,,0,12,12,12,,,,,18.746614500007126,,,,,,,,,,,,,,,,,,,,,,,,,,,,,,,,,,,,,,,,,,,,,,,,,,,,18.731373624992557,18.746614500007126,18.773656250035856,right,1,0.020776166988071054,None,18.775346042006277,19.08013162499992,8,0.12677687515343466,0.10069995513001166,,,,,,,,,,,,,,,,,,,,,,,,,,,2026-02-02_20h58.59.113,4_calibr_sum,,2025.1.1,None,2026-02-02 20h59.12.557721 +0400,
,13,13,0,,,,0.13,0.14,right,0.46,0.25,-0.2,0.2,0.2,-0.2,10,25,1.5,,,,,right,1,0.07118199998512864,None,,,,,,,,,,,,,0,13,13,13,,,,,19.092603792028967,,,,,,,,,,,,,,,,,,,,,,,,,,,,,,,,,,,,,,,,,,,,,,,,,,,,19.081458000000566,19.092603792028967,19.16687408403959,right,1,0.07118199998512864,None,19.166960875038058,19.46368391701253,9,0.12280581264141281,0.09808752357743744,,,,,,,,,,,,,,,,,,,,,,,,,,,2026-02-02_20h58.59.113,4_calibr_sum,,2025.1.1,None,2026-02-02 20h59.12.557721 +0400,
,14,14,0,,,,0.18,0.19,left,0.4,0.19,-0.3,0.2,0.3,-0.2,45,5,0.6,,,,,right,0,0.06378179095918313,None,,,,,,,,,,,,,0,14,14,14,,,,,19.47401870903559,,,,,,,,,,,,,,,,,,,,,,,,,,,,,,,,,,,,,,,,,,,,,,,,,,,,19.464928500005044,19.47401870903559,19.548738084034994,right,0,0.06378179095918313,None,19.550554334011395,19.845443917030934,9,0.11887087786259751,0.09589850586309195,,,,,,,,,,,,,,,,,,,,,,,,,,,2026-02-02_20h58.59.113,4_calibr_sum,,2025.1.1,None,2026-02-02 20h59.12.557721 +0400,
,15,15,0,,,,0.14,0.15,right,0.47,0.75,-0.2,-0.2,0.2,0.2,35,8,1.5,,,,,right,1,0.0456993340048939,None,,,,,,,,,,,,,0,15,15,15,,,,,19.85438279202208,,,,,,,,,,,,,,,,,,,,,,,,,,,,,,,,,,,,,,,,,,,,,,,,,,,,19.846049542014953,19.85438279202208,19.905376125010662,right,1,0.0456993340048939,None,19.90911450004205,20.206181375018787,10,0.11429765637149103,0.0945275411438429,,,,,,,,,,,,,,,,,,,,,,,,,,,2026-02-02_20h58.59.113,4_calibr_sum,,2025.1.1,None,2026-02-02 20h59.12.557721 +0400,
,16,16,0,,,,0.15,0.16,right,0.48,0.15,-0.2,0.21,0.2,0.18,9,25,1.0,,,,,right,1,0.04713749996153638,None,,,,,,,,,,,,,0,16,16,16,,,,,20.21646533400053,,,,,,,,,,,,,,,,,,,,,,,,,,,,,,,,,,,,,,,,,,,,,,,,,,,,20.207360625034198,20.21646533400053,20.266234084032476,right,1,0.04713749996153638,None,20.266298875038046,20.564396542031318,11,0.11034705893561135,0.09305673804428252,,,,,,,,,,,,,,,,,,,,,,,,,,,2026-02-02_20h58.59.113,4_calibr_sum,,2025.1.1,None,2026-02-02 20h59.12.557721 +0400,
,17,17,0,,,,0.16,0.17,right,0.49,0.78,-0.2,0.15,0.2,-0.18,30,5,1.5,,,,,right,1,0.062096416018903255,None,,,,,,,,,,,,,0,17,17,17,,,,,20.57443570898613,,,,,,,,,,,,,,,,,,,,,,,,,,,,,,,,,,,,,,,,,,,,,,,,,,,,20.565516750037204,20.57443570898613,20.64007666701218,right,1,0.062096416018903255,None,20.64017337502446,20.936907875002362,12,0.1076664676624609,0.09110776424776287,,,,,,,,,,,,,,,,,,,,,,,,,,,2026-02-02_20h58.59.113,4_calibr_sum,,2025.1.1,None,2026-02-02 20h59.12.557721 +0400,
,18,18,0,,,,0.21,0.2,left,0.16,0.7,-0.18,0.15,0.18,-0.18,5,45,2.5,,,,,right,0,0.06755479198182002,None,,,,,,,,,,,,,0,18,18,18,,,,,20.947796416992787,,,,,,,,,,,,,,,,,,,,,,,,,,,,,,,,,,,,,,,,,,,,,,,,,,,,20.938200250035152,20.947796416992787,21.022381499991752,right,0,0.06755479198182002,None,21.0239059170126,21.32955900003435,12,0.10555532683716401,0.08912897509903257,,,,,,,,,,,,,,,,,,,,,,,,,,,2026-02-02_20h58.59.113,4_calibr_sum,,2025.1.1,None,2026-02-02 20h59.12.557721 +0400,
,19,19,0,,,,0.22,0.21,left,0.17,0.8,-0.18,-0.22,0.18,0.18,45,5,1.0,,,,,right,0,0.026843334024306387,None,,,,,,,,,,,,,0,19,19,19,,,,,21.346429834025912,,,,,,,,,,,,,,,,,,,,,,,,,,,,,,,,,,,,,,,,,,,,,,,,,,,,21.3313785000355,21.346429834025912,21.382047083985526,right,0,0.026843334024306387,None,21.382191959011834,21.696234750037547,12,0.10161972719652113,0.08854979072923273,,,,,,,,,,,,,,,,,,,,,,,,,,,2026-02-02_20h58.59.113,4_calibr_sum,,2025.1.1,None,2026-02-02 20h59.12.557721 +0400,
,20,20,0,,,,0.16,0.15,left,0.17,0.7,-0.3,-0.22,0.3,0.18,6,47,0.6,,,,,right,0,0.07429558300646022,None,,,,,,,,,,,,,0,20,20,20,,,,,21.713464458996896,,,,,,,,,,,,,,,,,,,,,,,,,,,,,,,,,,,,,,,,,,,,,,,,,,,,21.697566125018056,21.713464458996896,21.79884858400328,right,0,0.07429558300646022,None,21.79891625000164,22.09658712503733,12,0.10031857747318489,0.08661143793839465,,,,,,,,,,,,,,,,,,,,,,,,,,,2026-02-02_20h58.59.113,4_calibr_sum,,2025.1.1,None,2026-02-02 20h59.12.557721 +0400,
,21,21,0,,,,0.17,0.16,left,0.3,0.18,-0.3,-0.2,0.3,0.2,5,45,2.5,,,,,right,0,0.05600587499793619,None,,,,,,,,,,,,,0,21,21,21,,,,,22.10637370898621,,,,,,,,,,,,,,,,,,,,,,,,,,,,,,,,,,,,,,,,,,,,,,,,,,,,22.097815792018082,22.10637370898621,22.165519584028516,right,0,0.05600587499793619,None,22.16561437502969,22.463912792038172,12,0.09830436372430995,0.08512203142947418,,,,,,,,,,,,,,,,,,,,,,,,,,,2026-02-02_20h58.59.113,4_calibr_sum,,2025.1.1,None,2026-02-02 20h59.12.557721 +0400,
,22,22,0,,,,0.21,0.22,right,0.54,0.22,-0.2,0.21,0.2,0.18,37,7,1.5,,,,,right,1,0.10501470899907872,None,,,,,,,,,,,,,0,22,22,22,,,,,22.472959875012748,,,,,,,,,,,,,,,,,,,,,,,,,,,,,,,,,,,,,,,,,,,,,,,,,,,,22.464658959012013,22.472959875012748,22.581615250033792,right,1,0.10501470899907872,None,22.583785541995894,22.8802660839865,13,0.0985961178666912,0.0832622353264057,,,,,,,,,,,,,,,,,,,,,,,,,,,2026-02-02_20h58.59.113,4_calibr_sum,,2025.1.1,None,2026-02-02 20h59.12.557721 +0400,
,23,23,0,,,,0.22,0.23,right,0.15,0.5,-0.2,0.15,0.2,-0.18,45,3,1.0,,,,,right,1,0.010662166983820498,None,,,,,,,,,,,,,0,23,23,23,,,,,22.890419792034663,,,,,,,,,,,,,,,,,,,,,,,,,,,,,,,,,,,,,,,,,,,,,,,,,,,,22.881548875011504,22.890419792034663,22.91399316699244,right,1,0.010662166983820498,None,22.914088000019547,23.21221875003539,14,0.09493220324657159,0.08338165099790415,,,,,,,,,,,,,,,,,,,,,,,,,,,2026-02-02_20h58.59.113,4_calibr_sum,,2025.1.1,None,2026-02-02 20h59.12.557721 +0400,
,24,24,0,,,,0.28,0.27,left,0.13,0.85,-0.18,-0.22,0.18,0.18,5,45,1.0,,,,,right,0,0.09099879203131422,None,,,,,,,,,,,,,0,24,24,24,,,,,23.221350292034913,,,,,,,,,,,,,,,,,,,,,,,,,,,,,,,,,,,,,,,,,,,,,,,,,,,,23.212701000040397,23.221350292034913,23.33207325002877,right,0,0.09099879203131422,None,23.334650709002744,23.629675875010435,14,0.0947748667979613,0.08170063554467806,,,,,,,,,,,,,,,,,,,,,,,,,,,2026-02-02_20h58.59.113,4_calibr_sum,,2025.1.1,None,2026-02-02 20h59.12.557721 +0400,
,25,25,0,,,,0.24,0.25,right,0.13,0.85,-0.3,-0.2,0.3,0.2,0,45,1.5,,,,,right,1,0.2527096249978058,None,,,,,,,,,,,,,0,25,25,25,,,,,23.637973250006326,,,,,,,,,,,,,,,,,,,,,,,,,,,,,,,,,,,,,,,,,,,,,,,,,,,,23.630294375005178,23.637973250006326,23.898160250042565,right,1,0.2527096249978058,None,23.900199124997016,24.197623917018063,15,0.1008492805748784,0.0856780361825794,,,,,,,,,,,,,,,,,,,,,,,,,,,2026-02-02_20h58.59.113,4_calibr_sum,,2025.1.1,None,2026-02-02 20h59.12.557721 +0400,
,26,26,0,,,,0.25,0.26,right,0.54,0.22,-0.3,0.2,0.3,-0.2,37,7,2.5,,,,,right,1,0.1271699999924749,None,,,,,,,,,,,,,0,26,26,26,,,,,24.207643542031292,,,,,,,,,,,,,,,,,,,,,,,,,,,,,,,,,,,,,,,,,,,,,,,,,,,,24.198868250008672,24.207643542031292,24.337738500034902,right,1,0.1271699999924749,None,24.33783591701649,24.63052033400163,16,0.10182412203478937,0.08422324714902711,,,,,,,,,,,,,,,,,,,,,,,,,,,2026-02-02_20h58.59.113,4_calibr_sum,,2025.1.1,None,2026-02-02 20h59.12.557721 +0400,
,27,27,0,,,,0.16,0.15,left,0.17,0.7,-0.3,-0.22,0.3,0.18,6,47,2.5,,,,,right,0,0.10820245801005512,None,,,,,,,,,,,,,0,27,27,27,,,,,24.64013395900838,,,,,,,,,,,,,,,,,,,,,,,,,,,,,,,,,,,,,,,,,,,,,,,,,,,,24.631353500008117,24.64013395900838,24.754597417020705,right,0,0.10820245801005512,None,24.75663220899878,25.062960334005766,16,0.10205191974819172,0.08271405670144319,,,,,,,,,,,,,,,,,,,,,,,,,,,2026-02-02_20h58.59.113,4_calibr_sum,,2025.1.1,None,2026-02-02 20h59.12.557721 +0400,
,28,28,0,,,,0.12,0.13,right,0.45,0.85,-0.2,0.0,0.2,0.2,5,10,1.0,,,,,right,1,0.07849087496288121,None,,,,,,,,,,,,,0,28,28,28,,,,,25.075033667031676,,,,,,,,,,,,,,,,,,,,,,,,,,,,,,,,,,,,,,,,,,,,,,,,,,,,25.064163667033426,25.075033667031676,25.164372125000227,right,1,0.07849087496288121,None,25.16611487499904,25.463334291998763,17,0.1012394699280086,0.08138906255270674,,,,,,,,,,,,,,,,,,,,,,,,,,,2026-02-02_20h58.59.113,4_calibr_sum,,2025.1.1,None,2026-02-02 20h59.12.557721 +0400,
,29,29,0,,,,0.23,0.17,right,0.52,0.2,-0.3,-0.22,0.3,0.18,36,10,1.0,,,,,right,1,0.1419973750016652,None,,,,,,,,,,,,,0,29,29,29,,,,,25.471876416995656,,,,,,,,,,,,,,,,,,,,,,,,,,,,,,,,,,,,,,,,,,,,,,,,,,,,25.464446250000037,25.471876416995656,25.625611792027485,right,1,0.1419973750016652,None,25.625707208993845,25.92042483401019,18,0.10259806676379715,0.08035484612188834,,,,,,,,,,,,,,,,,,,,,,,,,,,2026-02-02_20h58.59.113,4_calibr_sum,,2025.1.1,None,2026-02-02 20h59.12.557721 +0400,
,30,30,0,,,,0.17,0.18,left,0.3,0.18,-0.3,-0.2,0.3,0.2,5,45,1.5,,,,,right,0,0.09315566602163017,None,,,,,,,,,,,,,0,30,30,30,,,,,25.930641625018325,,,,,,,,,,,,,,,,,,,,,,,,,,,,,,,,,,,,,,,,,,,,,,,,,,,,25.921705916989595,25.930641625018325,26.025286833988503,right,0,0.09315566602163017,None,26.027277042041533,26.32195395900635,18,0.10229347319146918,0.07906577941210906,,,,,,,,,,,,,,,,,,,,,,,,,,,2026-02-02_20h58.59.113,4_calibr_sum,,2025.1.1,None,2026-02-02 20h59.12.557721 +0400,
,31,31,0,,,,0.13,0.14,right,0.46,0.25,-0.2,0.2,0.2,-0.2,10,25,0.6,,,,,right,1,0.13963770802365616,None,,,,,,,,,,,,,0,31,31,31,,,,,26.345263833994977,,,,,,,,,,,,,,,,,,,,,,,,,,,,,,,,,,,,,,,,,,,,,,,,,,,,26.322776834014803,26.345263833994977,26.487924042041413,right,1,0.13963770802365616,None,26.48961975000566,26.78741854202235,19,0.10346048052997503,0.07809135927202399,,,,,,,,,,,,,,,,,,,,,,,,,,,2026-02-02_20h58.59.113,4_calibr_sum,,2025.1.1,None,2026-02-02 20h59.12.557721 +0400,
,32,32,0,,,,0.19,0.2,left,0.5,0.2,-0.3,-0.2,0.3,0.2,30,15,1.5,,,,,right,0,0.10753941698931158,None,,,,,,,,,,,,,0,32,32,32,,,,,26.812479624990374,,,,,,,,,,,,,,,,,,,,,,,,,,,,,,,,,,,,,,,,,,,,,,,,,,,,26.78858733404195,26.812479624990374,26.923456542019267,right,0,0.10753941698931158,None,26.925444499996956,27.218953959003557,19,0.10358408466510644,0.07690223351047752,,,,,,,,,,,,,,,,,,,,,,,,,,,2026-02-02_20h58.59.113,4_calibr_sum,,2025.1.1,None,2026-02-02 20h59.12.557721 +0400,
,33,33,0,,,,0.2,0.21,left,0.15,0.6,-0.3,0.21,0.3,0.18,6,47,1.0,,,,,right,0,0.12858566700015217,None,,,,,,,,,,,,,0,33,33,33,,,,,27.229520666995086,,,,,,,,,,,,,,,,,,,,,,,,,,,,,,,,,,,,,,,,,,,,,,,,,,,,27.22014908399433,27.229520666995086,27.364132334012538,right,0,0.12858566700015217,None,27.364227334037423,27.662523917038925,19,0.10431942532201954,0.0758805486512651,,,,,,,,,,,,,,,,,,,,,,,,,,,2026-02-02_20h58.59.113,4_calibr_sum,,2025.1.1,None,2026-02-02 20h59.12.557721 +0400,
,34,34,0,,,,0.19,0.2,right,0.52,0.2,-0.2,0.2,0.2,-0.2,36,10,1.5,,,,,right,1,0.1464170420076698,None,,,,,,,,,,,,,0,34,34,34,,,,,27.671110083989333,,,,,,,,,,,,,,,,,,,,,,,,,,,,,,,,,,,,,,,,,,,,,,,,,,,,27.663325375004206,27.671110083989333,27.82105758402031,right,1,0.1464170420076698,None,27.822761458985042,28.121544416993856,20,0.10552221437018099,0.07511681100436403,,,,,,,,,,,,,,,,,,,,,,,,,,,2026-02-02_20h58.59.113,4_calibr_sum,,2025.1.1,None,2026-02-02 20h59.12.557721 +0400,
,35,35,0,,,,0.24,0.23,left,0.7,0.16,-0.18,0.2,0.18,-0.2,6,47,1.5,,,,,right,0,0.12222083302913234,None,,,,,,,,,,,,,0,35,35,35,,,,,28.13404862501193,,,,,,,,,,,,,,,,,,,,,,,,,,,,,,,,,,,,,,,,,,,,,,,,,,,,28.122864334029146,28.13404862501193,28.266295167035423,right,0,0.12222083302913234,None,28.268285166996066,28.56657362502301,20,0.10598606488848519,0.07411699339248207,,,,,,,,,,,,,,,,,,,,,,,,,,,2026-02-02_20h58.59.113,4_calibr_sum,,2025.1.1,None,2026-02-02 20h59.12.557721 +0400,
,36,36,0,,,,0.25,0.24,left,0.8,0.17,-0.18,-0.2,0.18,0.2,25,4,0.6,,,,,right,0,0.11659783299546689,None,,,,,,,,,,,,,0,36,36,36,,,,,28.57891845901031,,,,,,,,,,,,,,,,,,,,,,,,,,,,,,,,,,,,,,,,,,,,,,,,,,,,28.567759833997115,28.57891845901031,28.69835637504002,right,0,0.11659783299546689,None,28.69846058404073,28.996418041992,20,0.10627286943191713,0.07312880152512354,,,,,,,,,,,,,,,,,,,,,,,,,,,2026-02-02_20h58.59.113,4_calibr_sum,,2025.1.1,None,2026-02-02 20h59.12.557721 +0400,
,37,37,0,,,,0.26,0.25,left,0.25,0.25,-0.18,0.21,0.18,0.18,3,45,2.5,,,,,right,0,0.10112920799292624,None,,,,,,,,,,,,,0,37,37,37,,,,,29.00603166699875,,,,,,,,,,,,,,,,,,,,,,,,,,,,,,,,,,,,,,,,,,,,,,,,,,,,28.99705633398844,29.00603166699875,29.110693417023867,right,0,0.10112920799292624,None,29.110891334014013,29.402606417017523,20,0.10613750992036473,0.07216486254477399,,,,,,,,,,,,,,,,,,,,,,,,,,,2026-02-02_20h58.59.113,4_calibr_sum,,2025.1.1,None,2026-02-02 20h59.12.557721 +0400,
,38,38,0,,,,0.27,0.26,left,0.52,0.2,-0.18,0.15,0.18,-0.18,20,4,1.0,,,,,right,0,0.12690033396938816,None,,,,,,,,,,,,,0,38,38,38,,,,,29.41321962501388,,,,,,,,,,,,,,,,,,,,,,,,,,,,,,,,,,,,,,,,,,,,,,,,,,,,29.403231125033926,29.41321962501388,29.54685124999378,right,0,0.12690033396938816,None,29.546940417028964,29.83941945899278,20,0.10666989002418585,0.0713092222287859,,,,,,,,,,,,,,,,,,,,,,,,,,,2026-02-02_20h58.59.113,4_calibr_sum,,2025.1.1,None,2026-02-02 20h59.12.557721 +0400,
,39,39,0,,,,0.23,0.22,left,0.6,0.15,-0.18,-0.2,0.18,0.2,30,15,1.5,,,,,right,0,0.1168874169816263,None,,,,,,,,,,,,,0,39,39,39,,,,,29.851678625040222,,,,,,,,,,,,,,,,,,,,,,,,,,,,,,,,,,,,,,,,,,,,,,,,,,,,29.840772750030737,29.851678625040222,29.97327395901084,right,0,0.1168874169816263,None,29.973371542000677,30.28000933403382,20,0.10692532819812187,0.07043028285666585,,,,,,,,,,,,,,,,,,,,,,,,,,,2026-02-02_20h58.59.113,4_calibr_sum,,2025.1.1,None,2026-02-02 20h59.12.557721 +0400,
,0,0,0,,,,,,,,,,,,,,,,,,,,,,,,Это было сложно?,1,3.933950041013304,"[(np.int64(1), 3.933950041013304)]",,,,,,,,,,,,,0,0,0,0,30.307234834006522,,,,,,,,,,,,,,,,,,,,,,,,,,,,,,,,,,,,,,,,,,,,,,,,,,,,,,,,,,,,,,,,30.293053333996795,30.307234834006522,30.307234834006522,34.23284512502141,1,3.933950041013304,"[(np.int64(1), 3.933950041013304)]",,,,,,,,,,,,,,,,,,,,2026-02-02_20h58.59.113,4_calibr_sum,,2025.1.1,None,2026-02-02 20h59.12.557721 +0400,
,1,1,0,,,,,,,,,,,,,,,,,,,,,,,,Вы могли контролировать ситуацию?,2.015356820234869,0.9991579999914393,"[(np.float64(2.015356820234869), 0.9991579999914393)]",,,,,,,,,,,,,0,1,1,1,34.2450777090271,,,,,,,,,,,,,,,,,,,,,,,,,,,,,,,,,,,,,,,,,,,,,,,,,,,,,,,,,,,,,,,,34.23555408400716,34.2450777090271,34.2450777090271,35.24145787500311,2.015356820234869,0.9991579999914393,"[(np.float64(2.015356820234869), 0.9991579999914393)]",,,,,,,,,,,,,,,,,,,,2026-02-02_20h58.59.113,4_calibr_sum,,2025.1.1,None,2026-02-02 20h59.12.557721 +0400,
,2,2,0,,,,,,,,,,,,,,,,,,,,,,,,Насколько результат зависел от Вас?,3.012646793134598,0.9140162089606747,"[(np.float64(3.012646793134598), 0.9140162089606747)]",,,,,,,,,,,,,0,2,2,2,35.25349329202436,,,,,,,,,,,,,,,,,,,,,,,,,,,,,,,,,,,,,,,,,,,,,,,,,,,,,,,,,,,,,,,,35.24535562499659,35.25349329202436,35.25349329202436,36.16578295902582,3.012646793134598,0.9140162089606747,"[(np.float64(3.012646793134598), 0.9140162089606747)]",,,,,,,,,,,,,,,,,,,,2026-02-02_20h58.59.113,4_calibr_sum,,2025.1.1,None,2026-02-02 20h59.12.557721 +0400,
,3,3,0,,,,,,,,,,,,,,,,,,,,,,,,Насколько успешно получалось сравнивать квадраты?,4.024390243902439,0.6526060409960337,"[(np.float64(4.024390243902439), 0.6526060409960337)]",,,,,,,,,,,,,0,3,3,3,36.17812004202278,,,,,,,,,,,,,,,,,,,,,,,,,,,,,,,,,,,,,,,,,,,,,,,,,,,,,,,,,,,,,,,,36.16849424998509,36.17812004202278,36.17812004202278,36.82722204201855,4.024390243902439,0.6526060409960337,"[(np.float64(4.024390243902439), 0.6526060409960337)]",,,,,,,,,,,,,,,,,,,,2026-02-02_20h58.59.113,4_calibr_sum,,2025.1.1,None,2026-02-02 20h59.12.557721 +0400,
,4,4,0,,,,,,,,,,,,,,,,,,,,,,,,Вы довольны результатом?,9,2.067616874992382,"[(np.int64(9), 2.067616874992382)]",,,,,,,,,,,,,0,4,4,4,36.83622854202986,,,,,,,,,,,,,,,,,,,,,,,,,,,,,,,,,,,,,,,,,,,,,,,,,,,,,,,,,,,,,,,,36.829000458994415,36.83622854202986,36.83622854202986,38.90164825000102,9,2.067616874992382,"[(np.int64(9), 2.067616874992382)]",,,,,,,,,,,,,,,,,,,,2026-02-02_20h58.59.113,4_calibr_sum,,2025.1.1,None,2026-02-02 20h59.12.557721 +0400,
,,,,,,,,,,,,,,,,,,,,,,,,,,,,,,,,,,,,,,,,,,,,,,,,,,,,,,,,,,,,,,,,,,,,,,,,,,,,,,,,,,,,,,,,,,,,,,,,,,,,,,,,,,,,,,,,,,,,,,38.90441883401945,38.910067458986305,38.910067458986305,40.2124378340086,40.2124378340086,40.19762533402536,None,,,,,,,,,,,,,2026-02-02_20h58.59.113,4_calibr_sum,,2025.1.1,None,2026-02-02 20h59.12.557721 +0400,
,,,,,,,,,,,,,,,,,,,,,,,,,,,,,,,,,,,,,,,,,,,,,,,,,,,,,,,,,,,,,,,,,,,,,,,,,,,,,,,,,,,,,,,,,,,,,,,,,,,,,,,,,,,,,,,,,,,,,,,,,,,,,40.19828975002747,40.2124378340086,40.2124378340086,43.88155445898883,"яап
  ",,,,,,,,2026-02-02_20h58.59.113,4_calibr_sum,,2025.1.1,None,2026-02-02 20h59.12.557721 +0400,
,,,,,,,,,,,,,,,,,,,,,,,,,,,,,,,,,,,,,,,,,,,,,,,,,,,,,,,,,,,,,,,,,,,,,,,,,,,,,,,,,,,,,,,,,,,,,,,,,,,,,,,,,,,,,,,,,,,,,,,,,,,,,,,,,,43.88161212502746,43.892469292040914,44.88822720904136,44.88080083404202,,,,2026-02-02_20h58.59.113,4_calibr_sum,,2025.1.1,None,2026-02-02 20h59.12.557721 +0400,
