Text,thisN,thisTrialN,thisRepN,BJW_slider.response,BJW_slider.rt,BJW_slider.history,w1,w2,corr_answ,op1,op2,xPos1,yPos1,xPos2,yPos2,or1,or2,time,resp_tren.keys,resp_tren.corr,resp_tren.rt,resp_tren.duration,resp.keys,resp.corr,resp.rt,resp.duration,q_sl,sl_h.response,sl_h.rt,sl_h.history,BJW_trials.thisRepN,BJW_trials.thisTrialN,BJW_trials.thisN,BJW_trials.thisIndex,trials.thisRepN,trials.thisTrialN,trials.thisN,trials.thisIndex,loop_L.thisRepN,loop_L.thisTrialN,loop_L.thisN,loop_L.thisIndex,l_slid.thisRepN,l_slid.thisTrialN,l_slid.thisN,l_slid.thisIndex,thisRow.t,notes,Main_instr.started,main_instr_text.started,main_instr_key.started,Main_instr.stopped,main_instr_key.keys,main_instr_key.rt,main_instr_key.duration,instr_BJW.started,BJW_inst_text.started,BJW_key_resp.started,instr_BJW.stopped,BJW_key_resp.keys,BJW_key_resp.rt,BJW_key_resp.duration,BJW.started,BJW_text.started,BJW.stopped,BJW_trials.BJW_slider.response,BJW_trials.BJW_slider.rt,BJW_trials.BJW_slider.history,instr.started,instr.stopped,resp_instr.keys,resp_instr.rt,resp_instr.duration,instr_2.started,text_3.started,key_resp.started,instr_2.stopped,key_resp.keys,key_resp.rt,key_resp.duration,tren.started,pol_1.started,pol_2.started,text_tren.started,tren.stopped,trials.resp_tren.keys,trials.resp_tren.corr,trials.resp_tren.rt,trials.resp_tren.duration,fb_tren.started,text_fb_tren.started,fb_tren.stopped,text_fb_tren.stopped,instr3.started,instr3.stopped,reesp_instr.keys,reesp_instr.rt,reesp_instr.duration,task_L.started,resp.started,task_L.stopped,loop_L.resp.keys,loop_L.resp.corr,loop_L.resp.rt,loop_L.resp.duration,fb_task.started,fb_task.stopped,corr_sum,mean_rt,sd_rt,resp.stopped,slider.started,sl_h.started,text_sl.started,slider.stopped,l_slid.sl_h.response,l_slid.sl_h.rt,l_slid.sl_h.history,fin_sum.started,text_5.started,key_resp_2.started,fin_sum.stopped,key_resp_2.keys,Get_points.started,name,gender,ag,date,expName,expVersion,psychopyVersion,frameRate,expStart,
,,,,,,,,,,,,,,,,,,,,,,,,,,,,,,,,,,,,,,,,,,,,,,,,,0.015622375009115785,0.030398292001336813,0.030398292001336813,1.2971335829934105,space,1.2360571660101414,None,,,,,,,,,,,,,,,,,,,,,,,,,,,,,,,,,,,,,,,,,,,,,,,,,,,,,,,,,,,,,,,,,,,,,,,,,2025-12-30_18h44.09.571,4_calibr_sum,,2025.1.1,119.02931684397167,2025-12-30 18h44.13.895549 +0400,
,,,,,,,,,,,,,,,,,,,,,,,,,,,,,,,,,,,,,,,,,,,,,,,,,,,,,,,,1.297204333008267,1.3143569169915281,1.3143569169915281,1.6528488749754615,space,0.3357278750045225,None,,,,,,,,,,,,,,,,,,,,,,,,,,,,,,,,,,,,,,,,,,,,,,,,,,,,,,,,,,,,,,,,,,2025-12-30_18h44.09.571,4_calibr_sum,,2025.1.1,119.02931684397167,2025-12-30 18h44.13.895549 +0400,
"Я считаю, что, по большому счету, заслуживаю того, что происходит со мной.",0,0,0,3.0,1.6783657079795375,"[(3.0, 1.6783657079795375)]",,,,,,,,,,,,,,,,,,,,,,,,,0,0,0,0,,,,,,,,,,,,,1.702416500018444,,,,,,,,,,,,,,,,1.6728410000214353,1.702416500018444,3.34915262501454,3.0,1.6783657079795375,"[(3.0, 1.6783657079795375)]",,,,,,,,,,,,,,,,,,,,,,,,,,,,,,,,,,,,,,,,,,,,,,,,,,,,,,,,,,,,2025-12-30_18h44.09.571,4_calibr_sum,,2025.1.1,119.02931684397167,2025-12-30 18h44.13.895549 +0400,
"Как правило, жизнь ко мне справедлива.",1,1,0,3.0,0.10096854198491201,"[(3.0, 0.10096854198491201)]",,,,,,,,,,,,,,,,,,,,,,,,,0,1,1,1,,,,,,,,,,,,,3.3585911249974743,,,,,,,,,,,,,,,,3.351630082994234,3.3585911249974743,3.4573232919792645,3.0,0.10096854198491201,"[(3.0, 0.10096854198491201)]",,,,,,,,,,,,,,,,,,,,,,,,,,,,,,,,,,,,,,,,,,,,,,,,,,,,,,,,,,,,2025-12-30_18h44.09.571,4_calibr_sum,,2025.1.1,119.02931684397167,2025-12-30 18h44.13.895549 +0400,
"Я верю, что обычно получаю то, что заслуживаю.",2,2,0,3.0,0.19914133299607784,"[(3.0, 0.19914133299607784)]",,,,,,,,,,,,,,,,,,,,,,,,,0,2,2,2,,,,,,,,,,,,,3.4667631670017727,,,,,,,,,,,,,,,,3.4591462920070626,3.4667631670017727,3.6665492500178516,3.0,0.19914133299607784,"[(3.0, 0.19914133299607784)]",,,,,,,,,,,,,,,,,,,,,,,,,,,,,,,,,,,,,,,,,,,,,,,,,,,,,,,,,,,,2025-12-30_18h44.09.571,4_calibr_sum,,2025.1.1,119.02931684397167,2025-12-30 18h44.13.895549 +0400,
В моей жизни в общем и целом всё происходит справедливо.,3,3,0,3.0,0.12365637498442084,"[(3.0, 0.12365637498442084)]",,,,,,,,,,,,,,,,,,,,,,,,,0,3,3,3,,,,,,,,,,,,,3.6763469169964083,,,,,,,,,,,,,,,,3.6690292499843054,3.6763469169964083,3.7999477079720236,3.0,0.12365637498442084,"[(3.0, 0.12365637498442084)]",,,,,,,,,,,,,,,,,,,,,,,,,,,,,,,,,,,,,,,,,,,,,,,,,,,,,,,,,,,,2025-12-30_18h44.09.571,4_calibr_sum,,2025.1.1,119.02931684397167,2025-12-30 18h44.13.895549 +0400,
"В моей жизни несправедливость – скорее исключение, чем правило.",4,4,0,3.0,0.11579399998299778,"[(3.0, 0.11579399998299778)]",,,,,,,,,,,,,,,,,,,,,,,,,0,4,4,4,,,,,,,,,,,,,3.8092015419970267,,,,,,,,,,,,,,,,3.802021000010427,3.8092015419970267,3.92322866700124,3.0,0.11579399998299778,"[(3.0, 0.11579399998299778)]",,,,,,,,,,,,,,,,,,,,,,,,,,,,,,,,,,,,,,,,,,,,,,,,,,,,,,,,,,,,2025-12-30_18h44.09.571,4_calibr_sum,,2025.1.1,119.02931684397167,2025-12-30 18h44.13.895549 +0400,
"Я считаю, что в целом в моей жизни всё справедливо.",5,5,0,3.0,0.1099172499962151,"[(3.0, 0.1099172499962151)]",,,,,,,,,,,,,,,,,,,,,,,,,0,5,5,5,,,,,,,,,,,,,3.9328397079952992,,,,,,,,,,,,,,,,3.924785208015237,3.9328397079952992,4.040565249975771,3.0,0.1099172499962151,"[(3.0, 0.1099172499962151)]",,,,,,,,,,,,,,,,,,,,,,,,,,,,,,,,,,,,,,,,,,,,,,,,,,,,,,,,,,,,2025-12-30_18h44.09.571,4_calibr_sum,,2025.1.1,119.02931684397167,2025-12-30 18h44.13.895549 +0400,
"Я думаю, что важные решения, которые касаются меня, обычно справедливы.",6,6,0,3.0,0.12508887500735,"[(3.0, 0.12508887500735)]",,,,,,,,,,,,,,,,,,,,,,,,,0,6,6,6,,,,,,,,,,,,,4.050512332993094,,,,,,,,,,,,,,,,4.042656417004764,4.050512332993094,4.173047417018097,3.0,0.12508887500735,"[(3.0, 0.12508887500735)]",,,,,,,,,,,,,,,,,,,,,,,,,,,,,,,,,,,,,,,,,,,,,,,,,,,,,,,,,,,,2025-12-30_18h44.09.571,4_calibr_sum,,2025.1.1,119.02931684397167,2025-12-30 18h44.13.895549 +0400,
"Я считаю, что в целом мир справедлив.",7,7,0,3.0,0.1266191669856198,"[(3.0, 0.1266191669856198)]",,,,,,,,,,,,,,,,,,,,,,,,,0,7,7,7,,,,,,,,,,,,,4.1822164580225945,,,,,,,,,,,,,,,,4.174408624996431,4.1822164580225945,4.307010707969312,3.0,0.1266191669856198,"[(3.0, 0.1266191669856198)]",,,,,,,,,,,,,,,,,,,,,,,,,,,,,,,,,,,,,,,,,,,,,,,,,,,,,,,,,,,,2025-12-30_18h44.09.571,4_calibr_sum,,2025.1.1,119.02931684397167,2025-12-30 18h44.13.895549 +0400,
"Я считаю, что, по большому счету, люди получают то, что заслуживают.",8,8,0,3.0,0.1262765409774147,"[(3.0, 0.1262765409774147)]",,,,,,,,,,,,,,,,,,,,,,,,,0,8,8,8,,,,,,,,,,,,,4.31678637501318,,,,,,,,,,,,,,,,4.308890042011626,4.31678637501318,4.440613124985248,3.0,0.1262765409774147,"[(3.0, 0.1262765409774147)]",,,,,,,,,,,,,,,,,,,,,,,,,,,,,,,,,,,,,,,,,,,,,,,,,,,,,,,,,,,,2025-12-30_18h44.09.571,4_calibr_sum,,2025.1.1,119.02931684397167,2025-12-30 18h44.13.895549 +0400,
"Я уверен, что справедливость всегда побеждает несправедливость.",9,9,0,3.0,0.12598941603209823,"[(3.0, 0.12598941603209823)]",,,,,,,,,,,,,,,,,,,,,,,,,0,9,9,9,,,,,,,,,,,,,4.450262041995302,,,,,,,,,,,,,,,,4.442268249986228,4.450262041995302,4.57401729200501,3.0,0.12598941603209823,"[(3.0, 0.12598941603209823)]",,,,,,,,,,,,,,,,,,,,,,,,,,,,,,,,,,,,,,,,,,,,,,,,,,,,,,,,,,,,2025-12-30_18h44.09.571,4_calibr_sum,,2025.1.1,119.02931684397167,2025-12-30 18h44.13.895549 +0400,
"Я убежден, что, если человек пережил несправедливость, в будущем это возместится.",10,10,0,3.0,0.1333227910217829,"[(3.0, 0.1333227910217829)]",,,,,,,,,,,,,,,,,,,,,,,,,0,10,10,10,,,,,,,,,,,,,4.584040375018958,,,,,,,,,,,,,,,,4.576395916985348,4.584040375018958,4.7158327079960145,3.0,0.1333227910217829,"[(3.0, 0.1333227910217829)]",,,,,,,,,,,,,,,,,,,,,,,,,,,,,,,,,,,,,,,,,,,,,,,,,,,,,,,,,,,,2025-12-30_18h44.09.571,4_calibr_sum,,2025.1.1,119.02931684397167,2025-12-30 18h44.13.895549 +0400,
"Я твердо уверен, что несправедливость в самых разных жизненных ситуациях (в семье, учебе и т. д.) – скорее исключение, чем правило.",11,11,0,3.0,0.1740446659969166,"[(3.0, 0.1740446659969166)]",,,,,,,,,,,,,,,,,,,,,,,,,0,11,11,11,,,,,,,,,,,,,4.726073666999582,,,,,,,,,,,,,,,,4.7187669579871,4.726073666999582,4.9000604579923674,3.0,0.1740446659969166,"[(3.0, 0.1740446659969166)]",,,,,,,,,,,,,,,,,,,,,,,,,,,,,,,,,,,,,,,,,,,,,,,,,,,,,,,,,,,,2025-12-30_18h44.09.571,4_calibr_sum,,2025.1.1,119.02931684397167,2025-12-30 18h44.13.895549 +0400,
"Я думаю, что все, кто принимает важные решения, стремятся быть справедливыми.",12,12,0,3.0,0.14050270902225748,"[(3.0, 0.14050270902225748)]",,,,,,,,,,,,,,,,,,,,,,,,,0,12,12,12,,,,,,,,,,,,,4.909016042016447,,,,,,,,,,,,,,,,4.9018345000222325,4.909016042016447,5.049057499971241,3.0,0.14050270902225748,"[(3.0, 0.14050270902225748)]",,,,,,,,,,,,,,,,,,,,,,,,,,,,,,,,,,,,,,,,,,,,,,,,,,,,,,,,,,,,2025-12-30_18h44.09.571,4_calibr_sum,,2025.1.1,119.02931684397167,2025-12-30 18h44.13.895549 +0400,
,,,,,,,,,,,,,,,,,,,,,,,,,,,,,,,,,,,,,,,,,,,,,,,,,,,,,,,,,,,,,,,,,,,,,5.049129249993712,6.265028125024401,space,1.2057876249891706,None,,,,,,,,,,,,,,,,,,,,,,,,,,,,,,,,,,,,,,,,,,,,,,,,,,,,,,,2025-12-30_18h44.09.571,4_calibr_sum,,2025.1.1,119.02931684397167,2025-12-30 18h44.13.895549 +0400,
,,,,,,,,,,,,,,,,,,,,,,,,,,,,,,,,,,,,,,,,,,,,,,,,,,,,,,,,,,,,,,,,,,,,,,,,,,6.26512699999148,6.278532208001707,6.278532208001707,7.629294832993764,space,1.3417136250063777,None,,,,,,,,,,,,,,,,,,,,,,,,,,,,,,,,,,,,,,,,,,,,,,,,2025-12-30_18h44.09.571,4_calibr_sum,,2025.1.1,119.02931684397167,2025-12-30 18h44.13.895549 +0400,
,0,0,0,,,,0.22,0.21,left,0.17,0.8,-0.18,-0.22,0.18,0.18,45,5,1.0,right,0,0.5415198330301791,None,,,,,,,,,,,,,0,0,0,0,,,,,,,,,7.656069667020347,,,,,,,,,,,,,,,,,,,,,,,,,,,,,,,,,,7.638562124979217,7.656069667020347,7.656069667020347,7.656069667020347,8.186088041984476,right,0,0.5415198330301791,None,8.190032374986913,8.22772562497994,8.693117125018034,,,,,,,,,,,,,,,,,,,,,,,,,,,,,,,,,,,,2025-12-30_18h44.09.571,4_calibr_sum,,2025.1.1,119.02931684397167,2025-12-30 18h44.13.895549 +0400,
,1,1,0,,,,0.21,0.22,right,0.54,0.22,-0.2,0.21,0.2,0.18,37,7,1.5,right,1,0.15354670799570158,None,,,,,,,,,,,,,0,1,1,3,,,,,,,,,8.704004917002749,,,,,,,,,,,,,,,,,,,,,,,,,,,,,,,,,,8.694277499977034,8.704004917002749,8.704004917002749,8.704004917002749,8.853004792006686,right,1,0.15354670799570158,None,8.856013083015569,8.864496833004523,9.352391667023767,9.362675499985926,,,,,,,,,,,,,,,,,,,,,,,,,,,,,,,,,,,2025-12-30_18h44.09.571,4_calibr_sum,,2025.1.1,119.02931684397167,2025-12-30 18h44.13.895549 +0400,
,2,2,0,,,,0.24,0.25,right,0.13,0.85,-0.3,-0.2,0.3,0.2,0,45,1.5,right,1,0.28000841598259285,None,,,,,,,,,,,,,0,2,2,6,,,,,,,,,9.362675499985926,,,,,,,,,,,,,,,,,,,,,,,,,,,,,,,,,,9.353529707994312,9.362675499985926,9.362675499985926,9.362675499985926,9.637309000012465,right,1,0.28000841598259285,None,9.6373799170251,9.651484832982533,10.136172499973327,10.146045874978881,,,,,,,,,,,,,,,,,,,,,,,,,,,,,,,,,,,2025-12-30_18h44.09.571,4_calibr_sum,,2025.1.1,119.02931684397167,2025-12-30 18h44.13.895549 +0400,
,3,3,0,,,,0.22,0.23,right,0.15,0.5,-0.2,0.15,0.2,-0.18,45,3,1.5,right,1,0.09670854202704504,None,,,,,,,,,,,,,0,3,3,4,,,,,,,,,10.146045874978881,,,,,,,,,,,,,,,,,,,,,,,,,,,,,,,,,,10.137399541970808,10.146045874978881,10.146045874978881,10.146045874978881,10.235686832980718,right,1,0.09670854202704504,None,10.235772708023433,10.244106666999869,10.727837375015952,10.737397083023097,,,,,,,,,,,,,,,,,,,,,,,,,,,,,,,,,,,2025-12-30_18h44.09.571,4_calibr_sum,,2025.1.1,119.02931684397167,2025-12-30 18h44.13.895549 +0400,
,4,4,0,,,,0.16,0.15,left,0.17,0.7,-0.3,-0.22,0.3,0.18,6,47,1.0,right,0,1.9148174169822596,None,,,,,,,,,,,,,0,4,4,1,,,,,,,,,10.737397083023097,,,,,,,,,,,,,,,,,,,,,,,,,,,,,,,,,,10.728520333010238,10.737397083023097,10.737397083023097,10.737397083023097,12.67059887497453,right,0,1.9148174169822596,None,12.673323749972042,12.684785292018205,13.168804541986901,13.177407208015211,,,,,,,,,,,,,,,,,,,,,,,,,,,,,,,,,,,2025-12-30_18h44.09.571,4_calibr_sum,,2025.1.1,119.02931684397167,2025-12-30 18h44.13.895549 +0400,
,5,5,0,,,,0.28,0.27,left,0.13,0.85,-0.18,-0.22,0.18,0.18,5,45,1.5,right,0,0.19973733398364857,None,,,,,,,,,,,,,0,5,5,5,,,,,,,,,13.177407208015211,,,,,,,,,,,,,,,,,,,,,,,,,,,,,,,,,,13.169546582968906,13.177407208015211,13.177407208015211,13.177407208015211,13.386847125017084,right,0,0.19973733398364857,None,13.386934457987081,13.394918458012398,13.885584292002022,13.89393924997421,,,,,,,,,,,,,,,,,,,,,,,,,,,,,,,,,,,2025-12-30_18h44.09.571,4_calibr_sum,,2025.1.1,119.02931684397167,2025-12-30 18h44.13.895549 +0400,
,6,6,0,,,,0.17,0.16,left,0.3,0.18,-0.3,-0.2,0.3,0.2,5,45,1.0,right,0,1.6416693750070408,None,,,,,,,,,,,,,0,6,6,2,,,,,,,,,13.89393924997421,,,,,,,,,,,,,,,,,,,,,,,,,,,,,,,,,,13.886112666979898,13.89393924997421,13.89393924997421,13.89393924997421,15.536066083004698,right,0,1.6416693750070408,None,15.53615970799001,15.544720000005327,16.034757749992423,16.04282770800637,,,,,,,,,,,,,,,,,,,,,,,,,,,,,,,,,,,2025-12-30_18h44.09.571,4_calibr_sum,,2025.1.1,119.02931684397167,2025-12-30 18h44.13.895549 +0400,
,,,,,,,,,,,,,,,,,,,,,,,,,,,,,,,,,,,,,,,,,,,,,,,,,,,,,,,,,,,,,,,,,,,,,,,,,,,,,,,,,,,,,,,,,,,,,,16.035034957982134,21.502269625023473,space,5.457346083014272,None,,,,,,,,,,,,,,,,,,,,,,,,,,,,,,2025-12-30_18h44.09.571,4_calibr_sum,,2025.1.1,119.02931684397167,2025-12-30 18h44.13.895549 +0400,
,0,0,0,,,,0.19,0.2,right,0.52,0.2,-0.2,0.2,0.2,-0.2,36,10,1.5,,,,,right,1,0.5129329590126872,None,,,,,,,,,,,,,0,0,0,34,,,,,21.537460417021066,,,,,,,,,,,,,,,,,,,,,,,,,,,,,,,,,,,,,,,,,,,,,,,,,,,,21.52511487499578,21.537460417021066,22.05260733299656,right,1,0.5129329590126872,None,22.057180124975275,22.351480291981716,1,0.5129329590126872,0.0,,,,,,,,,,,,,,,,,,2025-12-30_18h44.09.571,4_calibr_sum,,2025.1.1,119.02931684397167,2025-12-30 18h44.13.895549 +0400,
,1,1,0,,,,0.19,0.2,left,0.5,0.2,-0.3,-0.2,0.3,0.2,30,15,1.5,,,,,right,0,0.8158138340222649,None,,,,,,,,,,,,,0,1,1,32,,,,,22.35937462502625,,,,,,,,,,,,,,,,,,,,,,,,,,,,,,,,,,,,,,,,,,,,,,,,,,,,22.352325375017244,22.35937462502625,23.177221457997803,right,0,0.8158138340222649,None,23.180227166973054,23.476324666989967,1,0.6643733965174761,0.15144043750478886,,,,,,,,,,,,,,,,,,2025-12-30_18h44.09.571,4_calibr_sum,,2025.1.1,119.02931684397167,2025-12-30 18h44.13.895549 +0400,
,2,2,0,,,,0.15,0.14,left,0.8,0.16,-0.3,0.15,0.3,-0.18,30,15,0.5,,,,,None,0,,,,,,,,,,,,,,,0,2,2,1,,,,,23.486213749973103,,,,,,,,,,,,,,,,,,,,,,,,,,,,,,,,,,,,,,,,,,,,,,,,,,,,23.476901041984092,23.486213749973103,23.97487995796837,None,0,,,23.97727966698585,24.268653917009942,1,0.6643733965174761,0.15144043750478886,23.983400208002422,,,,,,,,,,,,,,,,,2025-12-30_18h44.09.571,4_calibr_sum,,2025.1.1,119.02931684397167,2025-12-30 18h44.13.895549 +0400,
,3,3,0,,,,0.21,0.22,right,0.54,0.22,-0.2,0.21,0.2,0.18,37,7,1.5,,,,,right,1,0.23966704198392108,None,,,,,,,,,,,,,0,3,3,22,,,,,24.278181125002448,,,,,,,,,,,,,,,,,,,,,,,,,,,,,,,,,,,,,,,,,,,,,,,,,,,,24.26984712498961,24.278181125002448,24.52198420802597,right,1,0.23966704198392108,None,24.52383166697109,24.81797083298443,2,0.5228046116729578,0.2353144968458204,,,,,,,,,,,,,,,,,,2025-12-30_18h44.09.571,4_calibr_sum,,2025.1.1,119.02931684397167,2025-12-30 18h44.13.895549 +0400,
,4,4,0,,,,0.24,0.23,left,0.7,0.16,-0.18,0.2,0.18,-0.2,6,47,1.5,,,,,right,0,0.7264839999843389,None,,,,,,,,,,,,,0,4,4,35,,,,,24.82730962499045,,,,,,,,,,,,,,,,,,,,,,,,,,,,,,,,,,,,,,,,,,,,,,,,,,,,24.819150583003648,24.82730962499045,25.56108374998439,right,0,0.7264839999843389,None,25.563053207995836,25.86131008301163,2,0.573724458750803,0.22205444557280238,,,,,,,,,,,,,,,,,,2025-12-30_18h44.09.571,4_calibr_sum,,2025.1.1,119.02931684397167,2025-12-30 18h44.13.895549 +0400,
,5,5,0,,,,0.18,0.17,left,0.4,0.19,-0.3,0.2,0.3,-0.2,45,5,0.7,,,,,right,0,0.3939300000201911,None,,,,,,,,,,,,,0,5,5,6,,,,,25.871869041991886,,,,,,,,,,,,,,,,,,,,,,,,,,,,,,,,,,,,,,,,,,,,,,,,,,,,25.862257041968405,25.871869041991886,26.269233124970924,right,0,0.3939300000201911,None,26.26933579199249,26.569186082982924,2,0.5377655670046806,0.2112314110669934,,,,,,,,,,,,,,,,,,2025-12-30_18h44.09.571,4_calibr_sum,,2025.1.1,119.02931684397167,2025-12-30 18h44.13.895549 +0400,
,6,6,0,,,,0.26,0.25,left,0.25,0.25,-0.18,0.21,0.18,0.18,3,45,1.5,,,,,right,0,1.0389576249872334,None,,,,,,,,,,,,,0,6,6,37,,,,,26.577998500026297,,,,,,,,,,,,,,,,,,,,,,,,,,,,,,,,,,,,,,,,,,,,,,,,,,,,26.5700324170175,26.577998500026297,27.621651166991796,right,0,1.0389576249872334,None,27.62180249998346,27.919250916980673,2,0.6212975766684394,0.2684590112291367,,,,,,,,,,,,,,,,,,2025-12-30_18h44.09.571,4_calibr_sum,,2025.1.1,119.02931684397167,2025-12-30 18h44.13.895549 +0400,
,7,7,0,,,,0.13,0.14,right,0.46,0.25,-0.2,0.2,0.2,-0.2,10,25,1.0,,,,,right,1,0.65937904198654,None,,,,,,,,,,,,,0,7,7,14,,,,,27.929884542012587,,,,,,,,,,,,,,,,,,,,,,,,,,,,,,,,,,,,,,,,,,,,,,,,,,,,27.920507124974392,27.929884542012587,28.595184999983758,right,1,0.65937904198654,None,28.59711224999046,28.893018957984168,3,0.6267377859995966,0.24890172217694978,,,,,,,,,,,,,,,,,,2025-12-30_18h44.09.571,4_calibr_sum,,2025.1.1,119.02931684397167,2025-12-30 18h44.13.895549 +0400,
,8,8,0,,,,0.15,0.16,right,0.48,0.15,-0.2,0.21,0.2,0.18,9,25,0.7,,,,,None,0,,,,,,,,,,,,,,,0,8,8,5,,,,,28.91792329197051,,,,,,,,,,,,,,,,,,,,,,,,,,,,,,,,,,,,,,,,,,,,,,,,,,,,28.8941438330221,28.91792329197051,29.606975583010353,None,0,,,29.60948341700714,29.902925417001825,3,0.6267377859995966,0.24890172217694978,29.61574516701512,,,,,,,,,,,,,,,,,2025-12-30_18h44.09.571,4_calibr_sum,,2025.1.1,119.02931684397167,2025-12-30 18h44.13.895549 +0400,
,9,9,0,,,,0.22,0.21,left,0.17,0.8,-0.18,-0.22,0.18,0.18,45,5,1.0,,,,,right,0,0.3423066249815747,None,,,,,,,,,,,,,0,9,9,19,,,,,29.91655887500383,,,,,,,,,,,,,,,,,,,,,,,,,,,,,,,,,,,,,,,,,,,,,,,,,,,,29.904613542021252,29.91655887500383,30.260299457993824,right,0,0.3423066249815747,None,30.261653667024802,30.559700832993258,3,0.5911838908723439,0.25111076261454396,,,,,,,,,,,,,,,,,,2025-12-30_18h44.09.571,4_calibr_sum,,2025.1.1,119.02931684397167,2025-12-30 18h44.13.895549 +0400,
,10,10,0,,,,0.16,0.15,left,0.17,0.7,-0.3,-0.22,0.3,0.18,6,47,1.5,,,,,None,0,,,,,,,,,,,,,,,0,10,10,20,,,,,30.56950358301401,,,,,,,,,,,,,,,,,,,,,,,,,,,,,,,,,,,,,,,,,,,,,,,,,,,,30.560540166974533,30.56950358301401,32.05937529198127,None,0,,,32.061723250022624,32.35949529201025,3,0.5911838908723439,0.25111076261454396,32.06890279200161,,,,,,,,,,,,,,,,,2025-12-30_18h44.09.571,4_calibr_sum,,2025.1.1,119.02931684397167,2025-12-30 18h44.13.895549 +0400,
,11,11,0,,,,0.26,0.27,right,0.15,0.5,-0.3,-0.2,0.3,0.2,5,45,1.0,,,,,None,0,,,,,,,,,,,,,,,0,11,11,10,,,,,32.36936549999518,,,,,,,,,,,,,,,,,,,,,,,,,,,,,,,,,,,,,,,,,,,,,,,,,,,,32.36033337499248,32.36936549999518,33.35927449999144,None,0,,,33.35934299998917,33.65200195799116,3,0.5911838908723439,0.25111076261454396,33.36732999997912,,,,,,,,,,,,,,,,,2025-12-30_18h44.09.571,4_calibr_sum,,2025.1.1,119.02931684397167,2025-12-30 18h44.13.895549 +0400,
,12,12,0,,,,0.25,0.26,right,0.54,0.22,-0.3,0.2,0.3,-0.2,37,7,1.5,,,,,None,0,,,,,,,,,,,,,,,0,12,12,26,,,,,33.6624317499809,,,,,,,,,,,,,,,,,,,,,,,,,,,,,,,,,,,,,,,,,,,,,,,,,,,,33.65314224996837,33.6624317499809,35.16875245800475,None,0,,,35.168906082981266,35.47592341701966,3,0.5911838908723439,0.25111076261454396,35.18532466702163,,,,,,,,,,,,,,,,,2025-12-30_18h44.09.571,4_calibr_sum,,2025.1.1,119.02931684397167,2025-12-30 18h44.13.895549 +0400,
,13,13,0,,,,0.27,0.26,left,0.52,0.2,-0.18,0.15,0.18,-0.18,20,4,1.5,,,,,None,0,,,,,,,,,,,,,,,0,13,13,38,,,,,35.48620733298594,,,,,,,,,,,,,,,,,,,,,,,,,,,,,,,,,,,,,,,,,,,,,,,,,,,,35.476788875006605,35.48620733298594,36.97643999999855,None,0,,,36.97658766701352,37.269807707984,3,0.5911838908723439,0.25111076261454396,36.98528008296853,,,,,,,,,,,,,,,,,2025-12-30_18h44.09.571,4_calibr_sum,,2025.1.1,119.02931684397167,2025-12-30 18h44.13.895549 +0400,
,14,14,0,,,,0.14,0.13,left,0.15,0.5,-0.3,0.21,0.3,0.18,45,5,0.5,,,,,None,0,,,,,,,,,,,,,,,0,14,14,0,,,,,37.283333332976326,,,,,,,,,,,,,,,,,,,,,,,,,,,,,,,,,,,,,,,,,,,,,,,,,,,,37.271746332990006,37.283333332976326,37.78589599998668,None,0,,,37.78604416700546,38.08457950002048,3,0.5911838908723439,0.25111076261454396,37.80192925001029,,,,,,,,,,,,,,,,,2025-12-30_18h44.09.571,4_calibr_sum,,2025.1.1,119.02931684397167,2025-12-30 18h44.13.895549 +0400,
,15,15,0,,,,0.12,0.13,right,0.45,0.85,-0.2,0.0,0.2,0.2,5,10,1.5,,,,,right,1,0.0429733750061132,None,,,,,,,,,,,,,0,15,15,28,,,,,38.093882374989334,,,,,,,,,,,,,,,,,,,,,,,,,,,,,,,,,,,,,,,,,,,,,,,,,,,,38.08512737497222,38.093882374989334,38.14725479198387,right,1,0.0429733750061132,None,38.149173750018235,38.44161941698985,4,0.5302716113316516,0.2928015896897478,,,,,,,,,,,,,,,,,,2025-12-30_18h44.09.571,4_calibr_sum,,2025.1.1,119.02931684397167,2025-12-30 18h44.13.895549 +0400,
,16,16,0,,,,0.22,0.23,right,0.15,0.5,-0.2,0.15,0.2,-0.18,45,3,1.5,,,,,right,1,0.46713262505363673,None,,,,,,,,,,,,,0,16,16,23,,,,,38.45167629199568,,,,,,,,,,,,,,,,,,,,,,,,,,,,,,,,,,,,,,,,,,,,,,,,,,,,38.44202833302552,38.45167629199568,38.92179512500297,right,1,0.46713262505363673,None,38.921892041980755,39.21856954199029,5,0.5239577127038502,0.2784210510634899,,,,,,,,,,,,,,,,,,2025-12-30_18h44.09.571,4_calibr_sum,,2025.1.1,119.02931684397167,2025-12-30 18h44.13.895549 +0400,
,17,17,0,,,,0.17,0.18,left,0.3,0.18,-0.3,-0.2,0.3,0.2,5,45,1.5,,,,,None,0,,,,,,,,,,,,,,,0,17,17,30,,,,,39.22766962501919,,,,,,,,,,,,,,,,,,,,,,,,,,,,,,,,,,,,,,,,,,,,,,,,,,,,39.219714167003985,39.22766962501919,40.71874145802576,None,0,,,40.722352874989156,41.01826924999477,5,0.5239577127038502,0.2784210510634899,40.728738499979954,,,,,,,,,,,,,,,,,2025-12-30_18h44.09.571,4_calibr_sum,,2025.1.1,119.02931684397167,2025-12-30 18h44.13.895549 +0400,
,18,18,0,,,,0.21,0.2,left,0.16,0.7,-0.18,0.15,0.18,-0.18,5,45,1.0,,,,,right,0,0.5699561670189723,None,,,,,,,,,,,,,0,18,18,18,,,,,41.02739970799303,,,,,,,,,,,,,,,,,,,,,,,,,,,,,,,,,,,,,,,,,,,,,,,,,,,,41.01898979197722,41.02739970799303,41.604231083008926,right,0,0.5699561670189723,None,41.60800249996828,41.9004907499766,5,0.5281393903688613,0.2657932080402032,,,,,,,,,,,,,,,,,,2025-12-30_18h44.09.571,4_calibr_sum,,2025.1.1,119.02931684397167,2025-12-30 18h44.13.895549 +0400,
,19,19,0,,,,0.25,0.24,left,0.8,0.17,-0.18,-0.2,0.18,0.2,25,4,1.5,,,,,None,0,,,,,,,,,,,,,,,0,19,19,36,,,,,41.911852916993666,,,,,,,,,,,,,,,,,,,,,,,,,,,,,,,,,,,,,,,,,,,,,,,,,,,,41.90141833300004,41.911852916993666,43.40255941700889,None,0,,,43.406352624995634,43.70121929200832,5,0.5281393903688613,0.2657932080402032,43.412877707974985,,,,,,,,,,,,,,,,,2025-12-30_18h44.09.571,4_calibr_sum,,2025.1.1,119.02931684397167,2025-12-30 18h44.13.895549 +0400,
,20,20,0,,,,0.18,0.19,right,0.51,0.8,-0.2,-0.2,0.2,0.2,45,3,0.5,,,,,None,0,,,,,,,,,,,,,,,0,20,20,3,,,,,43.709413125005085,,,,,,,,,,,,,,,,,,,,,,,,,,,,,,,,,,,,,,,,,,,,,,,,,,,,43.70172925002407,43.709413125005085,44.19350395799847,None,0,,,44.19358220801223,44.48692287498852,5,0.5281393903688613,0.2657932080402032,44.20105670799967,,,,,,,,,,,,,,,,,2025-12-30_18h44.09.571,4_calibr_sum,,2025.1.1,119.02931684397167,2025-12-30 18h44.13.895549 +0400,
,21,21,0,,,,0.14,0.15,right,0.47,0.75,-0.2,-0.2,0.2,0.2,35,8,0.5,,,,,None,0,,,,,,,,,,,,,,,0,21,21,4,,,,,44.49607108300552,,,,,,,,,,,,,,,,,,,,,,,,,,,,,,,,,,,,,,,,,,,,,,,,,,,,44.488050125015434,44.49607108300552,44.98521333298413,None,0,,,44.985348833026364,45.27728962502442,5,0.5281393903688613,0.2657932080402032,44.99311279196991,,,,,,,,,,,,,,,,,2025-12-30_18h44.09.571,4_calibr_sum,,2025.1.1,119.02931684397167,2025-12-30 18h44.13.895549 +0400,
,22,22,0,,,,0.15,0.14,left,0.8,0.16,-0.3,0.15,0.3,-0.18,30,15,1.0,,,,,None,0,,,,,,,,,,,,,,,0,22,22,11,,,,,45.28712962497957,,,,,,,,,,,,,,,,,,,,,,,,,,,,,,,,,,,,,,,,,,,,,,,,,,,,45.278648042003624,45.28712962497957,46.27612679201411,None,0,,,46.276205166999716,46.56924933299888,5,0.5281393903688613,0.2657932080402032,46.2851042500115,,,,,,,,,,,,,,,,,2025-12-30_18h44.09.571,4_calibr_sum,,2025.1.1,119.02931684397167,2025-12-30 18h44.13.895549 +0400,
,23,23,0,,,,0.23,0.22,left,0.6,0.15,-0.18,-0.2,0.18,0.2,30,15,1.5,,,,,right,0,0.573112832964398,None,,,,,,,,,,,,,0,23,23,39,,,,,46.57805366697721,,,,,,,,,,,,,,,,,,,,,,,,,,,,,,,,,,,,,,,,,,,,,,,,,,,,46.57021999999415,46.57805366697721,47.162737208011094,right,0,0.573112832964398,None,47.16430641699117,47.46100433298852,5,0.5318871772518227,0.25478101438686246,,,,,,,,,,,,,,,,,,2025-12-30_18h44.09.571,4_calibr_sum,,2025.1.1,119.02931684397167,2025-12-30 18h44.13.895549 +0400,
,24,24,0,,,,0.2,0.21,left,0.15,0.6,-0.3,0.21,0.3,0.18,6,47,1.5,,,,,None,0,,,,,,,,,,,,,,,0,24,24,33,,,,,47.47067704197252,,,,,,,,,,,,,,,,,,,,,,,,,,,,,,,,,,,,,,,,,,,,,,,,,,,,47.46211037499597,47.47067704197252,48.96059550001519,None,0,,,48.962970707973,49.259610083012376,5,0.5318871772518227,0.25478101438686246,48.97004895796999,,,,,,,,,,,,,,,,,2025-12-30_18h44.09.571,4_calibr_sum,,2025.1.1,119.02931684397167,2025-12-30 18h44.13.895549 +0400,
,25,25,0,,,,0.16,0.15,left,0.17,0.7,-0.3,-0.22,0.3,0.18,6,47,1.5,,,,,right,0,1.3633989159716293,None,,,,,,,,,,,,,0,25,25,27,,,,,49.26978066697484,,,,,,,,,,,,,,,,,,,,,,,,,,,,,,,,,,,,,,,,,,,,,,,,,,,,49.26046550000319,49.26978066697484,50.637403875007294,right,0,1.3633989159716293,None,50.639001499977894,50.935454582970124,5,0.5958496186918077,0.3301732219303508,,,,,,,,,,,,,,,,,,2025-12-30_18h44.09.571,4_calibr_sum,,2025.1.1,119.02931684397167,2025-12-30 18h44.13.895549 +0400,
,26,26,0,,,,0.14,0.13,left,0.15,0.5,-0.3,0.21,0.3,0.18,45,5,0.7,,,,,None,0,,,,,,,,,,,,,,,0,26,26,8,,,,,50.94445374998031,,,,,,,,,,,,,,,,,,,,,,,,,,,,,,,,,,,,,,,,,,,,,,,,,,,,50.936294957995415,50.94445374998031,51.63507199997548,None,0,,,51.63802625000244,51.935510249983054,5,0.5958496186918077,0.3301732219303508,51.64486424997449,,,,,,,,,,,,,,,,,2025-12-30_18h44.09.571,4_calibr_sum,,2025.1.1,119.02931684397167,2025-12-30 18h44.13.895549 +0400,
,27,27,0,,,,0.2,0.21,right,0.13,0.85,-0.2,-0.2,0.2,0.2,0,45,1.0,,,,,None,0,,,,,,,,,,,,,,,0,27,27,9,,,,,51.946172458003275,,,,,,,,,,,,,,,,,,,,,,,,,,,,,,,,,,,,,,,,,,,,,,,,,,,,51.93673499999568,51.946172458003275,52.93535587500082,None,0,,,52.93550841702381,53.22721799998544,5,0.5958496186918077,0.3301732219303508,52.94272300001467,,,,,,,,,,,,,,,,,2025-12-30_18h44.09.571,4_calibr_sum,,2025.1.1,119.02931684397167,2025-12-30 18h44.13.895549 +0400,
,28,28,0,,,,0.16,0.17,right,0.49,0.78,-0.2,0.15,0.2,-0.18,30,5,1.0,,,,,None,0,,,,,,,,,,,,,,,0,28,28,17,,,,,53.237350667011924,,,,,,,,,,,,,,,,,,,,,,,,,,,,,,,,,,,,,,,,,,,,,,,,,,,,53.228413000004366,53.237350667011924,54.22372504201485,None,0,,,54.22380020801211,54.517713833018206,5,0.5958496186918077,0.3301732219303508,54.23343449999811,,,,,,,,,,,,,,,,,2025-12-30_18h44.09.571,4_calibr_sum,,2025.1.1,119.02931684397167,2025-12-30 18h44.13.895549 +0400,
,29,29,0,,,,0.12,0.13,right,0.45,0.85,-0.2,0.0,0.2,0.2,5,10,1.0,,,,,right,1,0.9479034160031006,None,,,,,,,,,,,,,0,29,29,12,,,,,54.528175458020996,,,,,,,,,,,,,,,,,,,,,,,,,,,,,,,,,,,,,,,,,,,,,,,,,,,,54.51889329199912,54.528175458020996,55.48709712497657,right,1,0.9479034160031006,None,55.489830249978695,55.785732791991904,6,0.6209963184997572,0.33082964101983264,,,,,,,,,,,,,,,,,,2025-12-30_18h44.09.571,4_calibr_sum,,2025.1.1,119.02931684397167,2025-12-30 18h44.13.895549 +0400,
,30,30,0,,,,0.23,0.17,right,0.52,0.2,-0.3,-0.22,0.3,0.18,36,10,1.5,,,,,None,0,,,,,,,,,,,,,,,0,30,30,29,,,,,55.79497591697145,,,,,,,,,,,,,,,,,,,,,,,,,,,,,,,,,,,,,,,,,,,,,,,,,,,,55.786711291992106,55.79497591697145,57.28605258301832,None,0,,,57.2898373749922,57.58640725002624,6,0.6209963184997572,0.33082964101983264,57.30213091697078,,,,,,,,,,,,,,,,,2025-12-30_18h44.09.571,4_calibr_sum,,2025.1.1,119.02931684397167,2025-12-30 18h44.13.895549 +0400,
,31,31,0,,,,0.17,0.16,left,0.3,0.18,-0.3,-0.2,0.3,0.2,5,45,1.5,,,,,None,0,,,,,,,,,,,,,,,0,31,31,21,,,,,57.5958789170254,,,,,,,,,,,,,,,,,,,,,,,,,,,,,,,,,,,,,,,,,,,,,,,,,,,,57.587554375000764,57.5958789170254,59.08425229199929,None,0,,,59.08433404198149,59.378573291993234,6,0.6209963184997572,0.33082964101983264,59.09042899997439,,,,,,,,,,,,,,,,,2025-12-30_18h44.09.571,4_calibr_sum,,2025.1.1,119.02931684397167,2025-12-30 18h44.13.895549 +0400,
,32,32,0,,,,0.13,0.14,right,0.46,0.25,-0.2,0.2,0.2,-0.2,10,25,1.0,,,,,right,1,0.6794815839966759,None,,,,,,,,,,,,,0,32,32,13,,,,,59.391798999975435,,,,,,,,,,,,,,,,,,,,,,,,,,,,,,,,,,,,,,,,,,,,,,,,,,,,59.37991783302277,59.391798999975435,60.08481212501647,right,1,0.6794815839966759,None,60.08645520801656,60.385273916996084,7,0.6248953361995518,0.31994457962562345,,,,,,,,,,,,,,,,,,2025-12-30_18h44.09.571,4_calibr_sum,,2025.1.1,119.02931684397167,2025-12-30 18h44.13.895549 +0400,
,33,33,0,,,,0.18,0.19,left,0.4,0.19,-0.3,0.2,0.3,-0.2,45,5,1.5,,,,,None,0,,,,,,,,,,,,,,,0,33,33,31,,,,,60.39570883300621,,,,,,,,,,,,,,,,,,,,,,,,,,,,,,,,,,,,,,,,,,,,,,,,,,,,60.38635891699232,60.39570883300621,61.88504525000462,None,0,,,61.88806270802161,62.1842443330097,7,0.6248953361995518,0.31994457962562345,61.894749749975745,,,,,,,,,,,,,,,,,2025-12-30_18h44.09.571,4_calibr_sum,,2025.1.1,119.02931684397167,2025-12-30 18h44.13.895549 +0400,
,34,34,0,,,,0.15,0.16,right,0.48,0.15,-0.2,0.21,0.2,0.18,9,25,1.0,,,,,None,0,,,,,,,,,,,,,,,0,34,34,16,,,,,62.19346279196907,,,,,,,,,,,,,,,,,,,,,,,,,,,,,,,,,,,,,,,,,,,,,,,,,,,,62.18500670802314,62.19346279196907,63.18627991701942,None,0,,,63.18643579201307,63.486053958011325,7,0.6248953361995518,0.31994457962562345,63.19381208298728,,,,,,,,,,,,,,,,,2025-12-30_18h44.09.571,4_calibr_sum,,2025.1.1,119.02931684397167,2025-12-30 18h44.13.895549 +0400,
,35,35,0,,,,0.14,0.15,right,0.47,0.75,-0.2,-0.2,0.2,0.2,35,8,1.0,,,,,None,0,,,,,,,,,,,,,,,0,35,35,15,,,,,63.49607187497895,,,,,,,,,,,,,,,,,,,,,,,,,,,,,,,,,,,,,,,,,,,,,,,,,,,,63.487188957980834,63.49607187497895,64.48667608300457,None,0,,,64.48675287497463,64.78595679200953,7,0.6248953361995518,0.31994457962562345,64.49315499997465,,,,,,,,,,,,,,,,,2025-12-30_18h44.09.571,4_calibr_sum,,2025.1.1,119.02931684397167,2025-12-30 18h44.13.895549 +0400,
,36,36,0,,,,0.17,0.18,right,0.5,0.2,-0.2,-0.22,0.2,0.18,7,45,0.5,,,,,None,0,,,,,,,,,,,,,,,0,36,36,2,,,,,64.80120891699335,,,,,,,,,,,,,,,,,,,,,,,,,,,,,,,,,,,,,,,,,,,,,,,,,,,,64.78773166699102,64.80120891699335,65.28605591697851,None,0,,,65.28621774999192,65.57701175002148,7,0.6248953361995518,0.31994457962562345,65.29363445797935,,,,,,,,,,,,,,,,,2025-12-30_18h44.09.571,4_calibr_sum,,2025.1.1,119.02931684397167,2025-12-30 18h44.13.895549 +0400,
,37,37,0,,,,0.24,0.25,right,0.13,0.85,-0.3,-0.2,0.3,0.2,0,45,1.5,,,,,None,0,,,,,,,,,,,,,,,0,37,37,25,,,,,65.58712216699496,,,,,,,,,,,,,,,,,,,,,,,,,,,,,,,,,,,,,,,,,,,,,,,,,,,,65.5776229170151,65.58712216699496,67.07616645802045,None,0,,,67.0763104169746,67.36860216700006,7,0.6248953361995518,0.31994457962562345,67.08452766697155,,,,,,,,,,,,,,,,,2025-12-30_18h44.09.571,4_calibr_sum,,2025.1.1,119.02931684397167,2025-12-30 18h44.13.895549 +0400,
,38,38,0,,,,0.16,0.17,right,0.49,0.78,-0.2,0.15,0.2,-0.18,30,5,0.7,,,,,None,0,,,,,,,,,,,,,,,0,38,38,7,,,,,67.37819183297688,,,,,,,,,,,,,,,,,,,,,,,,,,,,,,,,,,,,,,,,,,,,,,,,,,,,67.36979366699234,67.37819183297688,68.06112241698429,None,0,,,68.06120620801812,68.35161858302308,7,0.6248953361995518,0.31994457962562345,68.06833637499949,,,,,,,,,,,,,,,,,2025-12-30_18h44.09.571,4_calibr_sum,,2025.1.1,119.02931684397167,2025-12-30 18h44.13.895549 +0400,
,39,39,0,,,,0.28,0.27,left,0.13,0.85,-0.18,-0.22,0.18,0.18,5,45,1.5,,,,,right,0,0.09815754200099036,None,,,,,,,,,,,,,0,39,39,24,,,,,68.36186270799953,,,,,,,,,,,,,,,,,,,,,,,,,,,,,,,,,,,,,,,,,,,,,,,,,,,,68.35277079197112,68.36186270799953,68.47036458301591,right,0,0.09815754200099036,None,68.47184000001289,68.76880754198646,7,0.5919742240621417,0.3349981268907146,,,,,,,,,,,,,,,,,,2025-12-30_18h44.09.571,4_calibr_sum,,2025.1.1,119.02931684397167,2025-12-30 18h44.13.895549 +0400,
,0,0,0,,,,,,,,,,,,,,,,,,,,,,,,Это было сложно?,5.925022583559169,6.924642583995592,"[(np.float64(5.925022583559169), 6.924642583995592)]",,,,,,,,,,,,,0,0,0,0,68.7928780419752,,,,,,,,,,,,,,,,,,,,,,,,,,,,,,,,,,,,,,,,,,,,,,,,,,,,,,,,,,,,,,,,,68.77910133299883,68.7928780419752,68.7928780419752,75.70684654201614,5.925022583559169,6.924642583995592,"[(np.float64(5.925022583559169), 6.924642583995592)]",,,,,,,,,,2025-12-30_18h44.09.571,4_calibr_sum,,2025.1.1,119.02931684397167,2025-12-30 18h44.13.895549 +0400,
,1,1,0,,,,,,,,,,,,,,,,,,,,,,,,Вы могли контролировать ситуацию?,5.968383017163505,0.47662912495434284,"[(np.float64(5.968383017163505), 0.47662912495434284)]",,,,,,,,,,,,,0,1,1,1,75.71636758302338,,,,,,,,,,,,,,,,,,,,,,,,,,,,,,,,,,,,,,,,,,,,,,,,,,,,,,,,,,,,,,,,,75.70847474999027,75.71636758302338,75.71636758302338,76.19001654197928,5.968383017163505,0.47662912495434284,"[(np.float64(5.968383017163505), 0.47662912495434284)]",,,,,,,,,,2025-12-30_18h44.09.571,4_calibr_sum,,2025.1.1,119.02931684397167,2025-12-30 18h44.13.895549 +0400,
,2,2,0,,,,,,,,,,,,,,,,,,,,,,,,Насколько результат зависел от Вас?,5.968383017163505,0.4090489170048386,"[(np.float64(5.968383017163505), 0.4090489170048386)]",,,,,,,,,,,,,0,2,2,2,76.19927199999802,,,,,,,,,,,,,,,,,,,,,,,,,,,,,,,,,,,,,,,,,,,,,,,,,,,,,,,,,,,,,,,,,76.19235458300682,76.19927199999802,76.19927199999802,76.60629837500164,5.968383017163505,0.4090489170048386,"[(np.float64(5.968383017163505), 0.4090489170048386)]",,,,,,,,,,2025-12-30_18h44.09.571,4_calibr_sum,,2025.1.1,119.02931684397167,2025-12-30 18h44.13.895549 +0400,
,3,3,0,,,,,,,,,,,,,,,,,,,,,,,,Насколько успешно получалось сравнивать квадраты?,5.968383017163505,0.2677139160223305,"[(np.float64(5.968383017163505), 0.2677139160223305)]",,,,,,,,,,,,,0,3,3,3,76.61543624999467,,,,,,,,,,,,,,,,,,,,,,,,,,,,,,,,,,,,,,,,,,,,,,,,,,,,,,,,,,,,,,,,,76.60841258300934,76.61543624999467,76.61543624999467,76.88353479199577,5.968383017163505,0.2677139160223305,"[(np.float64(5.968383017163505), 0.2677139160223305)]",,,,,,,,,,2025-12-30_18h44.09.571,4_calibr_sum,,2025.1.1,119.02931684397167,2025-12-30 18h44.13.895549 +0400,
,4,4,0,,,,,,,,,,,,,,,,,,,,,,,,Вы довольны результатом?,5.968383017163505,0.14861312502762303,"[(np.float64(5.968383017163505), 0.14861312502762303)]",,,,,,,,,,,,,0,4,4,4,76.89215129200602,,,,,,,,,,,,,,,,,,,,,,,,,,,,,,,,,,,,,,,,,,,,,,,,,,,,,,,,,,,,,,,,,76.88533866702346,76.89215129200602,76.89215129200602,77.03915154200513,5.968383017163505,0.14861312502762303,"[(np.float64(5.968383017163505), 0.14861312502762303)]",,,,,,,,,,2025-12-30_18h44.09.571,4_calibr_sum,,2025.1.1,119.02931684397167,2025-12-30 18h44.13.895549 +0400,
,,,,,,,,,,,,,,,,,,,,,,,,,,,,,,,,,,,,,,,,,,,,,,,,,,,,,,,,,,,,,,,,,,,,,,,,,,,,,,,,,,,,,,,,,,,,,,,,,,,,,,,,,,,,,,,,,,,,,,,77.0416289580171,77.05005999997957,77.05005999997957,78.35126637498615,None,,,,,2025-12-30_18h44.09.571,4_calibr_sum,,2025.1.1,119.02931684397167,2025-12-30 18h44.13.895549 +0400,
,,,,,,,,,,,,,,,,,,,,,,,,,,,,,,,,,,,,,,,,,,,,,,,,,,,,,,,,,,,,,,,,,,,,,,,,,,,,,,,,,,,,,,,,,,,,,,,,,,,,,,,,,,,,,,,,,,,,,,,,,,,,78.35134787502466,,,,,,,,,,
