Text,thisN,thisTrialN,thisRepN,BJW_slider.response,BJW_slider.rt,BJW_slider.history,w1,w2,corr_answ,op1,op2,xPos1,yPos1,xPos2,yPos2,or1,or2,time,resp_tren.keys,resp_tren.corr,resp_tren.rt,resp_tren.duration,BJW_trials.thisRepN,BJW_trials.thisTrialN,BJW_trials.thisN,BJW_trials.thisIndex,trials.thisRepN,trials.thisTrialN,trials.thisN,trials.thisIndex,loop_L.thisRepN,loop_L.thisTrialN,loop_L.thisN,loop_L.thisIndex,resp.keys,resp.corr,thisRow.t,notes,Main_instr.started,main_instr_text.started,main_instr_key.started,Main_instr.stopped,main_instr_key.keys,main_instr_key.rt,main_instr_key.duration,instr_BJW.started,BJW_inst_text.started,BJW_key_resp.started,instr_BJW.stopped,BJW_key_resp.keys,BJW_key_resp.rt,BJW_key_resp.duration,BJW.started,BJW_text.started,BJW.stopped,BJW_trials.BJW_slider.response,BJW_trials.BJW_slider.rt,BJW_trials.BJW_slider.history,instr.started,instr.stopped,resp_instr.keys,resp_instr.rt,resp_instr.duration,instr_2.started,text_3.started,key_resp.started,instr_2.stopped,key_resp.keys,key_resp.rt,key_resp.duration,tren.started,pol_1.started,pol_2.started,text_tren.started,tren.stopped,trials.resp_tren.keys,trials.resp_tren.corr,trials.resp_tren.rt,trials.resp_tren.duration,fb_tren.started,text_fb_tren.started,fb_tren.stopped,text_fb_tren.stopped,instr3.started,instr3.stopped,reesp_instr.keys,reesp_instr.rt,reesp_instr.duration,task_L.started,resp.started,resp.stopped,task_L.stopped,loop_L.resp.keys,loop_L.resp.corr,fb_task.started,fb_task.stopped,name,gender,ag,date,expName,expVersion,psychopyVersion,frameRate,expStart,
,,,,,,,,,,,,,,,,,,,,,,,,,,,,,,,,,,,,,,,0.017801792011596262,0.02894595800898969,0.02894595800898969,0.9286042080493644,space,0.8711815410060808,None,,,,,,,,,,,,,,,,,,,,,,,,,,,,,,,,,,,,,,,,,,,,,,,,,,,,,,,2025-12-30_18h41.34.543,4_calibr_sum,,2025.1.1,119.36895597561146,2025-12-30 18h41.49.158754 +0400,
,,,,,,,,,,,,,,,,,,,,,,,,,,,,,,,,,,,,,,,,,,,,,,0.928670208028052,0.9476841250434518,0.9476841250434518,1.508521500043571,space,0.5548917909618467,None,,,,,,,,,,,,,,,,,,,,,,,,,,,,,,,,,,,,,,,,,,,,,,,,2025-12-30_18h41.34.543,4_calibr_sum,,2025.1.1,119.36895597561146,2025-12-30 18h41.49.158754 +0400,
"Я считаю, что, по большому счету, заслуживаю того, что происходит со мной.",0,0,0,3.0,1.8278671670123003,"[(3.0, 1.8278671670123003)]",,,,,,,,,,,,,,,,,0,0,0,0,,,,,,,,,,,1.5569209170062095,,,,,,,,,,,,,,,,1.527685500041116,1.5569209170062095,3.3547776670311578,3.0,1.8278671670123003,"[(3.0, 1.8278671670123003)]",,,,,,,,,,,,,,,,,,,,,,,,,,,,,,,,,,,,,,,,,,2025-12-30_18h41.34.543,4_calibr_sum,,2025.1.1,119.36895597561146,2025-12-30 18h41.49.158754 +0400,
"Как правило, жизнь ко мне справедлива.",1,1,0,3.0,0.12405600002966821,"[(3.0, 0.12405600002966821)]",,,,,,,,,,,,,,,,,0,1,1,1,,,,,,,,,,,3.364386250032112,,,,,,,,,,,,,,,,3.357188208028674,3.364386250032112,3.4889861670089886,3.0,0.12405600002966821,"[(3.0, 0.12405600002966821)]",,,,,,,,,,,,,,,,,,,,,,,,,,,,,,,,,,,,,,,,,,2025-12-30_18h41.34.543,4_calibr_sum,,2025.1.1,119.36895597561146,2025-12-30 18h41.49.158754 +0400,
"Я верю, что обычно получаю то, что заслуживаю.",2,2,0,3.0,0.1332255419692956,"[(3.0, 0.1332255419692956)]",,,,,,,,,,,,,,,,,0,2,2,2,,,,,,,,,,,3.498024417029228,,,,,,,,,,,,,,,,3.4908265420235693,3.498024417029228,3.629581458051689,3.0,0.1332255419692956,"[(3.0, 0.1332255419692956)]",,,,,,,,,,,,,,,,,,,,,,,,,,,,,,,,,,,,,,,,,,2025-12-30_18h41.34.543,4_calibr_sum,,2025.1.1,119.36895597561146,2025-12-30 18h41.49.158754 +0400,
В моей жизни в общем и целом всё происходит справедливо.,3,3,0,3.0,0.1416463339701295,"[(3.0, 0.1416463339701295)]",,,,,,,,,,,,,,,,,0,3,3,3,,,,,,,,,,,3.639186875021551,,,,,,,,,,,,,,,,3.6319999170373194,3.639186875021551,3.7787004170240834,3.0,0.1416463339701295,"[(3.0, 0.1416463339701295)]",,,,,,,,,,,,,,,,,,,,,,,,,,,,,,,,,,,,,,,,,,2025-12-30_18h41.34.543,4_calibr_sum,,2025.1.1,119.36895597561146,2025-12-30 18h41.49.158754 +0400,
"В моей жизни несправедливость – скорее исключение, чем правило.",4,4,0,3.0,0.13317958399420604,"[(3.0, 0.13317958399420604)]",,,,,,,,,,,,,,,,,0,4,4,4,,,,,,,,,,,3.7885018750093877,,,,,,,,,,,,,,,,3.780885167012457,3.7885018750093877,3.922128333011642,3.0,0.13317958399420604,"[(3.0, 0.13317958399420604)]",,,,,,,,,,,,,,,,,,,,,,,,,,,,,,,,,,,,,,,,,,2025-12-30_18h41.34.543,4_calibr_sum,,2025.1.1,119.36895597561146,2025-12-30 18h41.49.158754 +0400,
"Я считаю, что в целом в моей жизни всё справедливо.",5,5,0,3.0,0.15015966596547514,"[(3.0, 0.15015966596547514)]",,,,,,,,,,,,,,,,,0,5,5,5,,,,,,,,,,,3.9307293750462122,,,,,,,,,,,,,,,,3.9235783330514096,3.9307293750462122,4.079631625034381,3.0,0.15015966596547514,"[(3.0, 0.15015966596547514)]",,,,,,,,,,,,,,,,,,,,,,,,,,,,,,,,,,,,,,,,,,2025-12-30_18h41.34.543,4_calibr_sum,,2025.1.1,119.36895597561146,2025-12-30 18h41.49.158754 +0400,
"Я думаю, что важные решения, которые касаются меня, обычно справедливы.",6,6,0,3.0,0.1588452080031857,"[(3.0, 0.1588452080031857)]",,,,,,,,,,,,,,,,,0,6,6,6,,,,,,,,,,,4.08949029201176,,,,,,,,,,,,,,,,4.081748750002589,4.08949029201176,4.246004500018898,3.0,0.1588452080031857,"[(3.0, 0.1588452080031857)]",,,,,,,,,,,,,,,,,,,,,,,,,,,,,,,,,,,,,,,,,,2025-12-30_18h41.34.543,4_calibr_sum,,2025.1.1,119.36895597561146,2025-12-30 18h41.49.158754 +0400,
"Я считаю, что в целом мир справедлив.",7,7,0,3.0,0.14947504200972617,"[(3.0, 0.14947504200972617)]",,,,,,,,,,,,,,,,,0,7,7,7,,,,,,,,,,,4.255327500053681,,,,,,,,,,,,,,,,4.247422625019681,4.255327500053681,4.405544125009328,3.0,0.14947504200972617,"[(3.0, 0.14947504200972617)]",,,,,,,,,,,,,,,,,,,,,,,,,,,,,,,,,,,,,,,,,,2025-12-30_18h41.34.543,4_calibr_sum,,2025.1.1,119.36895597561146,2025-12-30 18h41.49.158754 +0400,
"Я считаю, что, по большому счету, люди получают то, что заслуживают.",8,8,0,3.0,0.165649458009284,"[(3.0, 0.165649458009284)]",,,,,,,,,,,,,,,,,0,8,8,8,,,,,,,,,,,4.414463542052545,,,,,,,,,,,,,,,,4.4073051669984125,4.414463542052545,4.578802958014421,3.0,0.165649458009284,"[(3.0, 0.165649458009284)]",,,,,,,,,,,,,,,,,,,,,,,,,,,,,,,,,,,,,,,,,,2025-12-30_18h41.34.543,4_calibr_sum,,2025.1.1,119.36895597561146,2025-12-30 18h41.49.158754 +0400,
"Я уверен, что справедливость всегда побеждает несправедливость.",9,9,0,3.0,0.17635879199951887,"[(3.0, 0.17635879199951887)]",,,,,,,,,,,,,,,,,0,9,9,9,,,,,,,,,,,4.587901375023648,,,,,,,,,,,,,,,,4.580434667004738,4.587901375023648,4.762678583036177,3.0,0.17635879199951887,"[(3.0, 0.17635879199951887)]",,,,,,,,,,,,,,,,,,,,,,,,,,,,,,,,,,,,,,,,,,2025-12-30_18h41.34.543,4_calibr_sum,,2025.1.1,119.36895597561146,2025-12-30 18h41.49.158754 +0400,
"Я убежден, что, если человек пережил несправедливость, в будущем это возместится.",10,10,0,3.0,0.1588312920066528,"[(3.0, 0.1588312920066528)]",,,,,,,,,,,,,,,,,0,10,10,10,,,,,,,,,,,4.772532292001415,,,,,,,,,,,,,,,,4.764912708022166,4.772532292001415,4.928938833007123,3.0,0.1588312920066528,"[(3.0, 0.1588312920066528)]",,,,,,,,,,,,,,,,,,,,,,,,,,,,,,,,,,,,,,,,,,2025-12-30_18h41.34.543,4_calibr_sum,,2025.1.1,119.36895597561146,2025-12-30 18h41.49.158754 +0400,
"Я твердо уверен, что несправедливость в самых разных жизненных ситуациях (в семье, учебе и т. д.) – скорее исключение, чем правило.",11,11,0,3.0,0.14979870797833428,"[(3.0, 0.14979870797833428)]",,,,,,,,,,,,,,,,,0,11,11,11,,,,,,,,,,,4.939516833052039,,,,,,,,,,,,,,,,4.931940292008221,4.939516833052039,5.088819583004806,3.0,0.14979870797833428,"[(3.0, 0.14979870797833428)]",,,,,,,,,,,,,,,,,,,,,,,,,,,,,,,,,,,,,,,,,,2025-12-30_18h41.34.543,4_calibr_sum,,2025.1.1,119.36895597561146,2025-12-30 18h41.49.158754 +0400,
"Я думаю, что все, кто принимает важные решения, стремятся быть справедливыми.",12,12,0,3.0,0.6236934580374509,"[(3.0, 0.6236934580374509)]",,,,,,,,,,,,,,,,,0,12,12,12,,,,,,,,,,,5.097738333046436,,,,,,,,,,,,,,,,5.090631500002928,5.097738333046436,5.721379208029248,3.0,0.6236934580374509,"[(3.0, 0.6236934580374509)]",,,,,,,,,,,,,,,,,,,,,,,,,,,,,,,,,,,,,,,,,,2025-12-30_18h41.34.543,4_calibr_sum,,2025.1.1,119.36895597561146,2025-12-30 18h41.49.158754 +0400,
,,,,,,,,,,,,,,,,,,,,,,,,,,,,,,,,,,,,,,,,,,,,,,,,,,,,,,,,,,,5.721468000032473,7.944444833032321,space,2.2174558749538846,None,,,,,,,,,,,,,,,,,,,,,,,,,,,,,,,,,,,,,2025-12-30_18h41.34.543,4_calibr_sum,,2025.1.1,119.36895597561146,2025-12-30 18h41.49.158754 +0400,
,,,,,,,,,,,,,,,,,,,,,,,,,,,,,,,,,,,,,,,,,,,,,,,,,,,,,,,,,,,,,,,,7.9445109170046635,7.954619917029049,7.954619917029049,8.840854125039186,space,0.880007416009903,None,,,,,,,,,,,,,,,,,,,,,,,,,,,,,,2025-12-30_18h41.34.543,4_calibr_sum,,2025.1.1,119.36895597561146,2025-12-30 18h41.49.158754 +0400,
,0,0,0,,,,0.16,0.15,left,0.17,0.7,-0.3,-0.22,0.3,0.18,6,47,1.0,right,0,1.3763107920531183,None,,,,,0,0,0,1,,,,,,,8.863082916999701,,,,,,,,,,,,,,,,,,,,,,,,,,,,,,,,,,8.850952208042145,8.863082916999701,8.863082916999701,8.863082916999701,10.230968833027873,right,0,1.3763107920531183,None,10.235510292055551,10.303920083038975,10.740694500040263,,,,,,,,,,,,,,,,,,2025-12-30_18h41.34.543,4_calibr_sum,,2025.1.1,119.36895597561146,2025-12-30 18h41.49.158754 +0400,
,1,1,0,,,,0.17,0.16,left,0.3,0.18,-0.3,-0.2,0.3,0.2,5,45,1.0,right,0,0.26378183299675584,None,,,,,0,1,1,2,,,,,,,10.752046333043836,,,,,,,,,,,,,,,,,,,,,,,,,,,,,,,,,,10.741885167022701,10.752046333043836,10.752046333043836,10.752046333043836,11.010589167010039,right,0,0.26378183299675584,None,11.010760958015453,11.022343832999468,11.508351708005648,11.51855133305071,,,,,,,,,,,,,,,,,2025-12-30_18h41.34.543,4_calibr_sum,,2025.1.1,119.36895597561146,2025-12-30 18h41.49.158754 +0400,
,2,2,0,,,,0.21,0.22,right,0.54,0.22,-0.2,0.21,0.2,0.18,37,7,1.5,right,1,0.029498083982616663,None,,,,,0,2,2,3,,,,,,,11.51855133305071,,,,,,,,,,,,,,,,,,,,,,,,,,,,,,,,,,11.509455833001994,11.51855133305071,11.51855133305071,11.51855133305071,11.55945033300668,right,1,0.029498083982616663,None,11.56223125004908,11.570941917016171,12.058542083017528,12.067359208012931,,,,,,,,,,,,,,,,,2025-12-30_18h41.34.543,4_calibr_sum,,2025.1.1,119.36895597561146,2025-12-30 18h41.49.158754 +0400,
,3,3,0,,,,0.24,0.25,right,0.13,0.85,-0.3,-0.2,0.3,0.2,0,45,1.5,right,1,0.17924008303089067,None,,,,,0,3,3,6,,,,,,,12.067359208012931,,,,,,,,,,,,,,,,,,,,,,,,,,,,,,,,,,12.05965891701635,12.067359208012931,12.067359208012931,12.067359208012931,12.24345962505322,right,1,0.17924008303089067,None,12.24356200004695,12.25172887503868,12.742922292032745,12.754720458004158,,,,,,,,,,,,,,,,,2025-12-30_18h41.34.543,4_calibr_sum,,2025.1.1,119.36895597561146,2025-12-30 18h41.49.158754 +0400,
,4,4,0,,,,0.28,0.27,left,0.13,0.85,-0.18,-0.22,0.18,0.18,5,45,1.5,right,0,0.8531615000101738,None,,,,,0,4,4,5,,,,,,,12.754720458004158,,,,,,,,,,,,,,,,,,,,,,,,,,,,,,,,,,12.744230000011157,12.754720458004158,12.754720458004158,12.754720458004158,13.601179542019963,right,0,0.8531615000101738,None,13.602928375010379,13.61181941704126,14.098788833012804,14.123813042009715,,,,,,,,,,,,,,,,,2025-12-30_18h41.34.543,4_calibr_sum,,2025.1.1,119.36895597561146,2025-12-30 18h41.49.158754 +0400,
,5,5,0,,,,0.22,0.23,right,0.15,0.5,-0.2,0.15,0.2,-0.18,45,3,1.5,right,1,0.15809004101902246,None,,,,,0,5,5,4,,,,,,,14.123813042009715,,,,,,,,,,,,,,,,,,,,,,,,,,,,,,,,,,14.099935750011355,14.123813042009715,14.123813042009715,14.123813042009715,14.286506250035018,right,1,0.15809004101902246,None,14.289008625026327,14.297450708050746,14.782419750001281,14.79308445804054,,,,,,,,,,,,,,,,,2025-12-30_18h41.34.543,4_calibr_sum,,2025.1.1,119.36895597561146,2025-12-30 18h41.49.158754 +0400,
,6,6,0,,,,0.22,0.21,left,0.17,0.8,-0.18,-0.22,0.18,0.18,45,5,1.0,right,0,0.3902736660093069,None,,,,,0,6,6,0,,,,,,,14.79308445804054,,,,,,,,,,,,,,,,,,,,,,,,,,,,,,,,,,14.783547458006069,14.79308445804054,14.79308445804054,14.79308445804054,15.186043792054988,right,0,0.3902736660093069,None,15.187647000013385,15.196404542017262,15.68158262502402,15.689935708011035,,,,,,,,,,,,,,,,,2025-12-30_18h41.34.543,4_calibr_sum,,2025.1.1,119.36895597561146,2025-12-30 18h41.49.158754 +0400,
,,,,,,,,,,,,,,,,,,,,,,,,,,,,,,,,,,,,,,,,,,,,,,,,,,,,,,,,,,,,,,,,,,,,,,,,,,,,,,,,,,,,15.681723957997747,16.73038370802533,space,1.0340946249780245,None,,,,,,,,,,,,2025-12-30_18h41.34.543,4_calibr_sum,,2025.1.1,119.36895597561146,2025-12-30 18h41.49.158754 +0400,
,0,0,0,,,,0.14,0.13,left,0.15,0.5,-0.3,0.21,0.3,0.18,45,5,0.7,,,,,,,,,,,,,0,0,0,8,,,16.762962000037078,,,,,,,,,,,,,,,,,,,,,,,,,,,,,,,,,,,,,,,,,,,,,,,,,,,,16.75031625002157,16.762962000037078,17.458208750002086,17.44706933305133,None,0,17.44995075004408,17.740906917024404,,,,,,,,,,
