Text,thisN,thisTrialN,thisRepN,BJW_slider.response,BJW_slider.rt,BJW_slider.history,w1,w2,corr_answ,op1,op2,xPos1,yPos1,xPos2,yPos2,or1,or2,time,resp_tren.keys,resp_tren.corr,resp_tren.rt,resp_tren.duration,resp.keys,resp.corr,resp.rt,resp.duration,q_sl,sl_h.response,sl_h.rt,sl_h.history,BJW_trials.thisRepN,BJW_trials.thisTrialN,BJW_trials.thisN,BJW_trials.thisIndex,trials.thisRepN,trials.thisTrialN,trials.thisN,trials.thisIndex,loop_L.thisRepN,loop_L.thisTrialN,loop_L.thisN,loop_L.thisIndex,l_slid.thisRepN,l_slid.thisTrialN,l_slid.thisN,l_slid.thisIndex,thisRow.t,notes,Main_instr.started,main_instr_text.started,main_instr_key.started,Main_instr.stopped,main_instr_key.keys,main_instr_key.rt,main_instr_key.duration,instr_BJW.started,BJW_inst_text.started,BJW_key_resp.started,instr_BJW.stopped,BJW_key_resp.keys,BJW_key_resp.rt,BJW_key_resp.duration,BJW.started,BJW_text.started,BJW.stopped,BJW_trials.BJW_slider.response,BJW_trials.BJW_slider.rt,BJW_trials.BJW_slider.history,instr.started,instr.stopped,resp_instr.keys,resp_instr.rt,resp_instr.duration,instr_2.started,text_3.started,key_resp.started,instr_2.stopped,key_resp.keys,key_resp.rt,key_resp.duration,tren.started,pol_1.started,pol_2.started,text_tren.started,tren.stopped,trials.resp_tren.keys,trials.resp_tren.corr,trials.resp_tren.rt,trials.resp_tren.duration,fb_tren.started,text_fb_tren.started,fb_tren.stopped,text_fb_tren.stopped,instr3.started,instr3.stopped,reesp_instr.keys,reesp_instr.rt,reesp_instr.duration,task_L.started,resp.started,task_L.stopped,loop_L.resp.keys,loop_L.resp.corr,loop_L.resp.rt,loop_L.resp.duration,fb_task.started,fb_task.stopped,corr_sum,mean_rt,sd_rt,slider.started,sl_h.started,text_sl.started,slider.stopped,l_slid.sl_h.response,l_slid.sl_h.rt,l_slid.sl_h.history,fin_sum.started,text_5.started,key_resp_2.started,fin_sum.stopped,key_resp_2.keys,Get_points.started,gp_key_resp.started,text_6.started,name,gender,ag,date,expName,expVersion,psychopyVersion,frameRate,expStart,
,,,,,,,,,,,,,,,,,,,,,,,,,,,,,,,,,,,,,,,,,,,,,,,,,0.03471983299823478,0.042538791021797806,0.042538791021797806,2.0129217500216328,space,1.9397543750237674,None,,,,,,,,,,,,,,,,,,,,,,,,,,,,,,,,,,,,,,,,,,,,,,,,,,,,,,,,,,,,,,,,,,,,,,,,,,2025-12-30_18h15.10.769,4_calibr_sum,,2025.1.1,None,2025-12-30 18h15.17.636860 +0400,
,,,,,,,,,,,,,,,,,,,,,,,,,,,,,,,,,,,,,,,,,,,,,,,,,,,,,,,,2.0129876660066657,2.033284457982518,2.033284457982518,2.457712416013237,space,0.4197060829610564,None,,,,,,,,,,,,,,,,,,,,,,,,,,,,,,,,,,,,,,,,,,,,,,,,,,,,,,,,,,,,,,,,,,,2025-12-30_18h15.10.769,4_calibr_sum,,2025.1.1,None,2025-12-30 18h15.17.636860 +0400,
"Я считаю, что, по большому счету, заслуживаю того, что происходит со мной.",0,0,0,3.0,1.4393843750003725,"[(3.0, 1.4393843750003725)]",,,,,,,,,,,,,,,,,,,,,,,,,0,0,0,0,,,,,,,,,,,,,2.5583875000011176,,,,,,,,,,,,,,,,2.543714458006434,2.5583875000011176,3.9175963749876246,3.0,1.4393843750003725,"[(3.0, 1.4393843750003725)]",,,,,,,,,,,,,,,,,,,,,,,,,,,,,,,,,,,,,,,,,,,,,,,,,,,,,,,,,,,,,2025-12-30_18h15.10.769,4_calibr_sum,,2025.1.1,None,2025-12-30 18h15.17.636860 +0400,
"Как правило, жизнь ко мне справедлива.",1,1,0,3.0,0.13512787502259016,"[(3.0, 0.13512787502259016)]",,,,,,,,,,,,,,,,,,,,,,,,,0,1,1,1,,,,,,,,,,,,,3.9254026249982417,,,,,,,,,,,,,,,,3.9203005409799516,3.9254026249982417,4.06139049999183,3.0,0.13512787502259016,"[(3.0, 0.13512787502259016)]",,,,,,,,,,,,,,,,,,,,,,,,,,,,,,,,,,,,,,,,,,,,,,,,,,,,,,,,,,,,,2025-12-30_18h15.10.769,4_calibr_sum,,2025.1.1,None,2025-12-30 18h15.17.636860 +0400,
"Я верю, что обычно получаю то, что заслуживаю.",2,2,0,3.0,0.12233087496133521,"[(3.0, 0.12233087496133521)]",,,,,,,,,,,,,,,,,,,,,,,,,0,2,2,2,,,,,,,,,,,,,4.069859291019384,,,,,,,,,,,,,,,,4.064105333003681,4.069859291019384,4.190641166002024,3.0,0.12233087496133521,"[(3.0, 0.12233087496133521)]",,,,,,,,,,,,,,,,,,,,,,,,,,,,,,,,,,,,,,,,,,,,,,,,,,,,,,,,,,,,,2025-12-30_18h15.10.769,4_calibr_sum,,2025.1.1,None,2025-12-30 18h15.17.636860 +0400,
В моей жизни в общем и целом всё происходит справедливо.,3,3,0,3.0,0.12712608400033787,"[(3.0, 0.12712608400033787)]",,,,,,,,,,,,,,,,,,,,,,,,,0,3,3,3,,,,,,,,,,,,,4.199164416000713,,,,,,,,,,,,,,,,4.193380040989723,4.199164416000713,4.324631249997765,3.0,0.12712608400033787,"[(3.0, 0.12712608400033787)]",,,,,,,,,,,,,,,,,,,,,,,,,,,,,,,,,,,,,,,,,,,,,,,,,,,,,,,,,,,,,2025-12-30_18h15.10.769,4_calibr_sum,,2025.1.1,None,2025-12-30 18h15.17.636860 +0400,
"В моей жизни несправедливость – скорее исключение, чем правило.",4,4,0,3.0,0.10917266603792086,"[(3.0, 0.10917266603792086)]",,,,,,,,,,,,,,,,,,,,,,,,,0,4,4,4,,,,,,,,,,,,,4.332510499982163,,,,,,,,,,,,,,,,4.327132333011832,4.332510499982163,4.441066165978555,3.0,0.10917266603792086,"[(3.0, 0.10917266603792086)]",,,,,,,,,,,,,,,,,,,,,,,,,,,,,,,,,,,,,,,,,,,,,,,,,,,,,,,,,,,,,2025-12-30_18h15.10.769,4_calibr_sum,,2025.1.1,None,2025-12-30 18h15.17.636860 +0400,
"Я считаю, что в целом в моей жизни всё справедливо.",5,5,0,3.0,0.1337835409794934,"[(3.0, 0.1337835409794934)]",,,,,,,,,,,,,,,,,,,,,,,,,0,5,5,5,,,,,,,,,,,,,4.449723957979586,,,,,,,,,,,,,,,,4.442742791026831,4.449723957979586,4.583749208017252,3.0,0.1337835409794934,"[(3.0, 0.1337835409794934)]",,,,,,,,,,,,,,,,,,,,,,,,,,,,,,,,,,,,,,,,,,,,,,,,,,,,,,,,,,,,,2025-12-30_18h15.10.769,4_calibr_sum,,2025.1.1,None,2025-12-30 18h15.17.636860 +0400,
"Я думаю, что важные решения, которые касаются меня, обычно справедливы.",6,6,0,3.0,0.15020841703517362,"[(3.0, 0.15020841703517362)]",,,,,,,,,,,,,,,,,,,,,,,,,0,6,6,6,,,,,,,,,,,,,4.591331582982093,,,,,,,,,,,,,,,,4.586051790975034,4.591331582982093,4.740701958013233,3.0,0.15020841703517362,"[(3.0, 0.15020841703517362)]",,,,,,,,,,,,,,,,,,,,,,,,,,,,,,,,,,,,,,,,,,,,,,,,,,,,,,,,,,,,,2025-12-30_18h15.10.769,4_calibr_sum,,2025.1.1,None,2025-12-30 18h15.17.636860 +0400,
"Я считаю, что в целом мир справедлив.",7,7,0,3.0,0.12604687502607703,"[(3.0, 0.12604687502607703)]",,,,,,,,,,,,,,,,,,,,,,,,,0,7,7,7,,,,,,,,,,,,,4.749253874993883,,,,,,,,,,,,,,,,4.742244791006669,4.749253874993883,4.873476958018728,3.0,0.12604687502607703,"[(3.0, 0.12604687502607703)]",,,,,,,,,,,,,,,,,,,,,,,,,,,,,,,,,,,,,,,,,,,,,,,,,,,,,,,,,,,,,2025-12-30_18h15.10.769,4_calibr_sum,,2025.1.1,None,2025-12-30 18h15.17.636860 +0400,
"Я считаю, что, по большому счету, люди получают то, что заслуживают.",8,8,0,3.0,0.12743762496393174,"[(3.0, 0.12743762496393174)]",,,,,,,,,,,,,,,,,,,,,,,,,0,8,8,8,,,,,,,,,,,,,4.882931541011203,,,,,,,,,,,,,,,,4.87529983301647,4.882931541011203,5.007728833006695,3.0,0.12743762496393174,"[(3.0, 0.12743762496393174)]",,,,,,,,,,,,,,,,,,,,,,,,,,,,,,,,,,,,,,,,,,,,,,,,,,,,,,,,,,,,,2025-12-30_18h15.10.769,4_calibr_sum,,2025.1.1,None,2025-12-30 18h15.17.636860 +0400,
"Я уверен, что справедливость всегда побеждает несправедливость.",9,9,0,3.0,0.1264350420096889,"[(3.0, 0.1264350420096889)]",,,,,,,,,,,,,,,,,,,,,,,,,0,9,9,9,,,,,,,,,,,,,5.015982291020919,,,,,,,,,,,,,,,,5.009431041020434,5.015982291020919,5.140993540990166,3.0,0.1264350420096889,"[(3.0, 0.1264350420096889)]",,,,,,,,,,,,,,,,,,,,,,,,,,,,,,,,,,,,,,,,,,,,,,,,,,,,,,,,,,,,,2025-12-30_18h15.10.769,4_calibr_sum,,2025.1.1,None,2025-12-30 18h15.17.636860 +0400,
"Я убежден, что, если человек пережил несправедливость, в будущем это возместится.",10,10,0,3.0,0.12614012497942895,"[(3.0, 0.12614012497942895)]",,,,,,,,,,,,,,,,,,,,,,,,,0,10,10,10,,,,,,,,,,,,,5.149634375004098,,,,,,,,,,,,,,,,5.143616333021782,5.149634375004098,5.273996583011467,3.0,0.12614012497942895,"[(3.0, 0.12614012497942895)]",,,,,,,,,,,,,,,,,,,,,,,,,,,,,,,,,,,,,,,,,,,,,,,,,,,,,,,,,,,,,2025-12-30_18h15.10.769,4_calibr_sum,,2025.1.1,None,2025-12-30 18h15.17.636860 +0400,
"Я твердо уверен, что несправедливость в самых разных жизненных ситуациях (в семье, учебе и т. д.) – скорее исключение, чем правило.",11,11,0,3.0,0.1433698339969851,"[(3.0, 0.1433698339969851)]",,,,,,,,,,,,,,,,,,,,,,,,,0,11,11,11,,,,,,,,,,,,,5.282770458026789,,,,,,,,,,,,,,,,5.277406957990024,5.282770458026789,5.424248415976763,3.0,0.1433698339969851,"[(3.0, 0.1433698339969851)]",,,,,,,,,,,,,,,,,,,,,,,,,,,,,,,,,,,,,,,,,,,,,,,,,,,,,,,,,,,,,2025-12-30_18h15.10.769,4_calibr_sum,,2025.1.1,None,2025-12-30 18h15.17.636860 +0400,
"Я думаю, что все, кто принимает важные решения, стремятся быть справедливыми.",12,12,0,3.0,0.12647533300332725,"[(3.0, 0.12647533300332725)]",,,,,,,,,,,,,,,,,,,,,,,,,0,12,12,12,,,,,,,,,,,,,5.432569249998778,,,,,,,,,,,,,,,,5.426224249997176,5.432569249998778,5.557884500012733,3.0,0.12647533300332725,"[(3.0, 0.12647533300332725)]",,,,,,,,,,,,,,,,,,,,,,,,,,,,,,,,,,,,,,,,,,,,,,,,,,,,,,,,,,,,,2025-12-30_18h15.10.769,4_calibr_sum,,2025.1.1,None,2025-12-30 18h15.17.636860 +0400,
,,,,,,,,,,,,,,,,,,,,,,,,,,,,,,,,,,,,,,,,,,,,,,,,,,,,,,,,,,,,,,,,,,,,,5.557946250017267,6.303236040985212,space,0.7371164169744588,None,,,,,,,,,,,,,,,,,,,,,,,,,,,,,,,,,,,,,,,,,,,,,,,,,,,,,,,,2025-12-30_18h15.10.769,4_calibr_sum,,2025.1.1,None,2025-12-30 18h15.17.636860 +0400,
,,,,,,,,,,,,,,,,,,,,,,,,,,,,,,,,,,,,,,,,,,,,,,,,,,,,,,,,,,,,,,,,,,,,,,,,,,6.303281790984329,6.310940082999878,6.310940082999878,6.825521374994423,space,0.5095629999996163,None,,,,,,,,,,,,,,,,,,,,,,,,,,,,,,,,,,,,,,,,,,,,,,,,,2025-12-30_18h15.10.769,4_calibr_sum,,2025.1.1,None,2025-12-30 18h15.17.636860 +0400,
,0,0,0,,,,0.28,0.27,left,0.13,0.85,-0.18,-0.22,0.18,0.18,5,45,1.5,right,0,0.9541997500346042,None,,,,,,,,,,,,,0,0,0,5,,,,,,,,,6.842399666027632,,,,,,,,,,,,,,,,,,,,,,,,,,,,,,,,,,6.83360883302521,6.842399666027632,6.842399666027632,6.842399666027632,7.792039708001539,right,0,0.9541997500346042,None,7.795167708012741,7.857729041017592,8.30197924998356,,,,,,,,,,,,,,,,,,,,,,,,,,,,,,,,,,,,,2025-12-30_18h15.10.769,4_calibr_sum,,2025.1.1,None,2025-12-30 18h15.17.636860 +0400,
,1,1,0,,,,0.21,0.22,right,0.54,0.22,-0.2,0.21,0.2,0.18,37,7,1.5,right,1,0.0062270829803310335,None,,,,,,,,,,,,,0,1,1,3,,,,,,,,,8.307905082998332,,,,,,,,,,,,,,,,,,,,,,,,,,,,,,,,,,8.302505708008539,8.307905082998332,8.307905082998332,8.307905082998332,8.309994250012096,right,1,0.0062270829803310335,None,8.312492957978975,8.33396137499949,8.818797165993601,,,,,,,,,,,,,,,,,,,,,,,,,,,,,,,,,,,,,2025-12-30_18h15.10.769,4_calibr_sum,,2025.1.1,None,2025-12-30 18h15.17.636860 +0400,
,2,2,0,,,,0.22,0.21,left,0.17,0.8,-0.18,-0.22,0.18,0.18,45,5,1.0,right,0,-0.0063555840170010924,None,,,,,,,,,,,,,0,2,2,0,,,,,,,,,8.828149374981876,,,,,,,,,,,,,,,,,,,,,,,,,,,,,,,,,,8.819631249993108,8.828149374981876,8.828149374981876,8.828149374981876,8.82082545798039,right,0,-0.0063555840170010924,None,8.822096500021871,8.828149374981876,9.318534624995664,9.324549083015881,,,,,,,,,,,,,,,,,,,,,,,,,,,,,,,,,,,,2025-12-30_18h15.10.769,4_calibr_sum,,2025.1.1,None,2025-12-30 18h15.17.636860 +0400,
,3,3,0,,,,0.16,0.15,left,0.17,0.7,-0.3,-0.22,0.3,0.18,6,47,1.0,right,0,0.46661920798942447,None,,,,,,,,,,,,,0,3,3,1,,,,,,,,,9.324549083015881,,,,,,,,,,,,,,,,,,,,,,,,,,,,,,,,,,9.319327916018665,9.324549083015881,9.324549083015881,9.324549083015881,9.326705083018169,right,0,0.46661920798942447,None,9.326746165985242,9.333670457999688,9.819000416027848,9.824910041003022,,,,,,,,,,,,,,,,,,,,,,,,,,,,,,,,,,,,2025-12-30_18h15.10.769,4_calibr_sum,,2025.1.1,None,2025-12-30 18h15.17.636860 +0400,
,4,4,0,,,,0.17,0.16,left,0.3,0.18,-0.3,-0.2,0.3,0.2,5,45,1.0,right,0,0.09429208299843594,None,,,,,,,,,,,,,0,4,4,2,,,,,,,,,9.824910041003022,,,,,,,,,,,,,,,,,,,,,,,,,,,,,,,,,,9.819625000003725,9.824910041003022,9.824910041003022,9.824910041003022,9.924599874997512,right,0,0.09429208299843594,None,9.924665666010696,9.933738875028212,10.418785999994725,10.424740958027542,,,,,,,,,,,,,,,,,,,,,,,,,,,,,,,,,,,,2025-12-30_18h15.10.769,4_calibr_sum,,2025.1.1,None,2025-12-30 18h15.17.636860 +0400,
,5,5,0,,,,0.22,0.23,right,0.15,0.5,-0.2,0.15,0.2,-0.18,45,3,1.5,right,1,0.5769423749879934,None,,,,,,,,,,,,,0,5,5,4,,,,,,,,,10.424740958027542,,,,,,,,,,,,,,,,,,,,,,,,,,,,,,,,,,10.419364458008204,10.424740958027542,10.424740958027542,10.424740958027542,10.426684374979232,right,1,0.5769423749879934,None,10.42826629098272,10.432765749981627,10.918328166007996,10.924131290987134,,,,,,,,,,,,,,,,,,,,,,,,,,,,,,,,,,,,2025-12-30_18h15.10.769,4_calibr_sum,,2025.1.1,None,2025-12-30 18h15.17.636860 +0400,
,6,6,0,,,,0.24,0.25,right,0.13,0.85,-0.3,-0.2,0.3,0.2,0,45,1.5,right,1,0.477318582998123,None,,,,,,,,,,,,,0,6,6,6,,,,,,,,,10.924131290987134,,,,,,,,,,,,,,,,,,,,,,,,,,,,,,,,,,10.91921220801305,10.924131290987134,10.924131290987134,10.924131290987134,10.9359527080087,right,1,0.477318582998123,None,10.936015791026875,10.94030533300247,11.435098665999249,11.439936832990497,,,,,,,,,,,,,,,,,,,,,,,,,,,,,,,,,,,,2025-12-30_18h15.10.769,4_calibr_sum,,2025.1.1,None,2025-12-30 18h15.17.636860 +0400,
,,,,,,,,,,,,,,,,,,,,,,,,,,,,,,,,,,,,,,,,,,,,,,,,,,,,,,,,,,,,,,,,,,,,,,,,,,,,,,,,,,,,,,,,,,,,,,11.435261790989898,13.90759270801209,space,2.4677074999781325,None,,,,,,,,,,,,,,,,,,,,,,,,,,,,,,,2025-12-30_18h15.10.769,4_calibr_sum,,2025.1.1,None,2025-12-30 18h15.17.636860 +0400,
,0,0,0,,,,0.28,0.27,left,0.13,0.85,-0.18,-0.22,0.18,0.18,5,45,1.5,,,,,right,0,0.5139847920509055,None,,,,,,,,,,,,,0,0,0,24,,,,,13.930142665980384,,,,,,,,,,,,,,,,,,,,,,,,,,,,,,,,,,,,,,,,,,,,,,,,,,,,13.923226749990135,13.930142665980384,14.453009625023697,right,0,0.5139847920509055,None,14.455948916031048,14.752035000012256,0,0.5139847920509055,0.0,,,,,,,,,,,,,,,,,,,2025-12-30_18h15.10.769,4_calibr_sum,,2025.1.1,None,2025-12-30 18h15.17.636860 +0400,
,1,1,0,,,,0.17,0.16,left,0.3,0.18,-0.3,-0.2,0.3,0.2,5,45,1.5,,,,,right,0,0.1285427080001682,None,,,,,,,,,,,,,0,1,1,21,,,,,14.758145125000738,,,,,,,,,,,,,,,,,,,,,,,,,,,,,,,,,,,,,,,,,,,,,,,,,,,,14.75294220802607,14.758145125000738,14.892319458012935,right,0,0.1285427080001682,None,14.892390249995515,15.184919833031017,0,0.32126375002553686,0.19272104202536866,,,,,,,,,,,,,,,,,,,2025-12-30_18h15.10.769,4_calibr_sum,,2025.1.1,None,2025-12-30 18h15.17.636860 +0400,
,2,2,0,,,,0.21,0.2,left,0.16,0.7,-0.18,0.15,0.18,-0.18,5,45,1.0,,,,,right,0,0.38899079198017716,None,,,,,,,,,,,,,0,2,2,18,,,,,15.190805457998067,,,,,,,,,,,,,,,,,,,,,,,,,,,,,,,,,,,,,,,,,,,,,,,,,,,,15.185793458018452,15.190805457998067,15.192702958011068,right,0,0.38899079198017716,None,15.192747833032627,15.485781208029948,0,0.3438394306770836,0.1605623121200111,,,,,,,,,,,,,,,,,,,2025-12-30_18h15.10.769,4_calibr_sum,,2025.1.1,None,2025-12-30 18h15.17.636860 +0400,
,3,3,0,,,,0.13,0.14,right,0.46,0.25,-0.2,0.2,0.2,-0.2,10,25,1.0,,,,,right,1,0.529561624978669,None,,,,,,,,,,,,,0,3,3,14,,,,,15.491384957975242,,,,,,,,,,,,,,,,,,,,,,,,,,,,,,,,,,,,,,,,,,,,,,,,,,,,15.486220583028626,15.491384957975242,16.0256134159863,right,1,0.529561624978669,None,16.028255750017706,16.319591999985278,1,0.39026997925247997,0.16063181371705174,,,,,,,,,,,,,,,,,,,2025-12-30_18h15.10.769,4_calibr_sum,,2025.1.1,None,2025-12-30 18h15.17.636860 +0400,
,4,4,0,,,,0.19,0.2,right,0.52,0.2,-0.2,0.2,0.2,-0.2,36,10,1.5,,,,,right,1,0.8172030000132509,None,,,,,,,,,,,,,0,4,4,34,,,,,16.327200040977914,,,,,,,,,,,,,,,,,,,,,,,,,,,,,,,,,,,,,,,,,,,,,,,,,,,,16.320198750006966,16.327200040977914,16.329073457978666,right,1,0.8172030000132509,None,16.32913795800414,16.618485415994655,2,0.4756565834046341,0.22317157600592955,,,,,,,,,,,,,,,,,,,2025-12-30_18h15.10.769,4_calibr_sum,,2025.1.1,None,2025-12-30 18h15.17.636860 +0400,
,5,5,0,,,,0.19,0.2,left,0.5,0.2,-0.3,-0.2,0.3,0.2,30,15,1.5,,,,,right,0,0.014603250019717962,None,,,,,,,,,,,,,0,5,5,32,,,,,16.624440249986947,,,,,,,,,,,,,,,,,,,,,,,,,,,,,,,,,,,,,,,,,,,,,,,,,,,,16.619258458027616,16.624440249986947,16.6418204579968,right,0,0.014603250019717962,None,16.64375058299629,16.93509416602319,2,0.3988143611738148,0.26651128031347654,,,,,,,,,,,,,,,,,,,2025-12-30_18h15.10.769,4_calibr_sum,,2025.1.1,None,2025-12-30 18h15.17.636860 +0400,
,6,6,0,,,,0.12,0.13,right,0.45,0.85,-0.2,0.0,0.2,0.2,5,10,1.5,,,,,right,1,0.2728277089772746,None,,,,,,,,,,,,,0,6,6,28,,,,,16.940992666000966,,,,,,,,,,,,,,,,,,,,,,,,,,,,,,,,,,,,,,,,,,,,,,,,,,,,16.93595766602084,16.940992666000966,16.9430665000109,right,1,0.2728277089772746,None,16.944521165976766,17.236345708020963,3,0.3808162680028805,0.25064906948421944,,,,,,,,,,,,,,,,,,,2025-12-30_18h15.10.769,4_calibr_sum,,2025.1.1,None,2025-12-30 18h15.17.636860 +0400,
,7,7,0,,,,0.12,0.13,right,0.45,0.85,-0.2,0.0,0.2,0.2,5,10,1.0,,,,,right,1,0.2840222080121748,None,,,,,,,,,,,,,0,7,7,12,,,,,17.244645415979903,,,,,,,,,,,,,,,,,,,,,,,,,,,,,,,,,,,,,,,,,,,,,,,,,,,,17.23675770801492,17.244645415979903,17.24671454099007,right,1,0.2840222080121748,None,17.246781790978275,17.53548508300446,4,0.36871701050404226,0.2366359667364711,,,,,,,,,,,,,,,,,,,2025-12-30_18h15.10.769,4_calibr_sum,,2025.1.1,None,2025-12-30 18h15.17.636860 +0400,
,8,8,0,,,,0.13,0.14,right,0.46,0.25,-0.2,0.2,0.2,-0.2,10,25,1.0,,,,,right,1,0.25053145800484344,None,,,,,,,,,,,,,0,8,8,13,,,,,17.54141125001479,,,,,,,,,,,,,,,,,,,,,,,,,,,,,,,,,,,,,,,,,,,,,,,,,,,,17.536209415993653,17.54141125001479,17.543459374981467,right,1,0.25053145800484344,None,17.54350508301286,17.835200665984303,5,0.35558528244857573,0.22617311224184758,,,,,,,,,,,,,,,,,,,2025-12-30_18h15.10.769,4_calibr_sum,,2025.1.1,None,2025-12-30 18h15.17.636860 +0400,
,9,9,0,,,,0.18,0.19,left,0.4,0.19,-0.3,0.2,0.3,-0.2,45,5,1.5,,,,,right,0,0.13877291698008776,None,,,,,,,,,,,,,0,9,9,31,,,,,17.84082479099743,,,,,,,,,,,,,,,,,,,,,,,,,,,,,,,,,,,,,,,,,,,,,,,,,,,,17.83604166598525,17.84082479099743,17.98714799998561,right,0,0.13877291698008776,None,17.98852029099362,18.28542395797558,5,0.33390404590172695,0.22420868224680943,,,,,,,,,,,,,,,,,,,2025-12-30_18h15.10.769,4_calibr_sum,,2025.1.1,None,2025-12-30 18h15.17.636860 +0400,
,10,10,0,,,,0.15,0.16,right,0.48,0.15,-0.2,0.21,0.2,0.18,9,25,1.0,,,,,right,1,0.4297589169582352,None,,,,,,,,,,,,,0,10,10,16,,,,,18.290689582994673,,,,,,,,,,,,,,,,,,,,,,,,,,,,,,,,,,,,,,,,,,,,,,,,,,,,18.285990833013784,18.290689582994673,18.292561125010252,right,1,0.4297589169582352,None,18.294147666019853,18.585873915988486,6,0.3426181250886822,0.21554333066102457,,,,,,,,,,,,,,,,,,,2025-12-30_18h15.10.769,4_calibr_sum,,2025.1.1,None,2025-12-30 18h15.17.636860 +0400,
,11,11,0,,,,0.23,0.22,left,0.6,0.15,-0.18,-0.2,0.18,0.2,30,15,1.5,,,,,right,0,0.11394279095111415,None,,,,,,,,,,,,,0,11,11,39,,,,,18.59176020801533,,,,,,,,,,,,,,,,,,,,,,,,,,,,,,,,,,,,,,,,,,,,,,,,,,,,18.586396500002593,18.59176020801533,18.708449999976438,right,0,0.11394279095111415,None,18.71003729099175,19.00228816602612,6,0.32356184724388487,0.21582842511593106,,,,,,,,,,,,,,,,,,,2025-12-30_18h15.10.769,4_calibr_sum,,2025.1.1,None,2025-12-30 18h15.17.636860 +0400,
,12,12,0,,,,0.22,0.23,right,0.15,0.5,-0.2,0.15,0.2,-0.18,45,3,1.5,,,,,right,1,0.17985324998153374,None,,,,,,,,,,,,,0,12,12,23,,,,,19.00773966597626,,,,,,,,,,,,,,,,,,,,,,,,,,,,,,,,,,,,,,,,,,,,,,,,,,,,19.00291479099542,19.00773966597626,19.191817249986343,right,1,0.17985324998153374,None,19.19318329100497,19.48549141600961,7,0.31250733976216555,0.21086751987914576,,,,,,,,,,,,,,,,,,,2025-12-30_18h15.10.769,4_calibr_sum,,2025.1.1,None,2025-12-30 18h15.17.636860 +0400,
,13,13,0,,,,0.16,0.17,right,0.49,0.78,-0.2,0.15,0.2,-0.18,30,5,0.7,,,,,right,1,0.14879279100568965,None,,,,,,,,,,,,,0,13,13,7,,,,,19.49108437501127,,,,,,,,,,,,,,,,,,,,,,,,,,,,,,,,,,,,,,,,,,,,,,,,,,,,19.485876750026364,19.49108437501127,19.641721958003473,right,1,0.14879279100568965,None,19.641796957992483,19.93608725001104,8,0.3008134434224173,0.20752528843008075,,,,,,,,,,,,,,,,,,,2025-12-30_18h15.10.769,4_calibr_sum,,2025.1.1,None,2025-12-30 18h15.17.636860 +0400,
,14,14,0,,,,0.15,0.14,left,0.8,0.16,-0.3,0.15,0.3,-0.18,30,15,1.0,,,,,right,0,0.104954042006284,None,,,,,,,,,,,,,0,14,14,11,,,,,19.942428832990117,,,,,,,,,,,,,,,,,,,,,,,,,,,,,,,,,,,,,,,,,,,,,,,,,,,,19.936833415995352,19.942428832990117,20.052864415978547,right,0,0.104954042006284,None,20.05445941601647,20.35181508300593,8,0.2877561499946751,0.2063553482353597,,,,,,,,,,,,,,,,,,,2025-12-30_18h15.10.769,4_calibr_sum,,2025.1.1,None,2025-12-30 18h15.17.636860 +0400,
,15,15,0,,,,0.18,0.17,left,0.4,0.19,-0.3,0.2,0.3,-0.2,45,5,0.7,,,,,right,0,0.013030041998717934,None,,,,,,,,,,,,,0,15,15,6,,,,,20.35723120800685,,,,,,,,,,,,,,,,,,,,,,,,,,,,,,,,,,,,,,,,,,,,,,,,,,,,20.35272254102165,20.35723120800685,20.375419582996983,right,0,0.013030041998717934,None,20.375497707980685,20.668730541015975,8,0.27058576824492775,0.21057884931239856,,,,,,,,,,,,,,,,,,,2025-12-30_18h15.10.769,4_calibr_sum,,2025.1.1,None,2025-12-30 18h15.17.636860 +0400,
,16,16,0,,,,0.2,0.21,left,0.15,0.6,-0.3,0.21,0.3,0.18,6,47,1.5,,,,,right,0,0.01749366702279076,None,,,,,,,,,,,,,0,16,16,33,,,,,20.674235165992286,,,,,,,,,,,,,,,,,,,,,,,,,,,,,,,,,,,,,,,,,,,,,,,,,,,,20.66956987499725,20.674235165992286,20.702994875027798,right,0,0.01749366702279076,None,20.703061082982458,21.002190582978074,8,0.25569799758480205,0.21279413732883518,,,,,,,,,,,,,,,,,,,2025-12-30_18h15.10.769,4_calibr_sum,,2025.1.1,None,2025-12-30 18h15.17.636860 +0400,
,17,17,0,,,,0.24,0.25,right,0.13,0.85,-0.3,-0.2,0.3,0.2,0,45,1.5,,,,,right,1,0.06643916602479294,None,,,,,,,,,,,,,0,17,17,25,,,,,21.00787416601088,,,,,,,,,,,,,,,,,,,,,,,,,,,,,,,,,,,,,,,,,,,,,,,,,,,,21.002835208026227,21.00787416601088,21.086229416017886,right,1,0.06643916602479294,None,21.0877946660039,21.385768832988106,9,0.24518361805369043,0.21129387501307234,,,,,,,,,,,,,,,,,,,2025-12-30_18h15.10.769,4_calibr_sum,,2025.1.1,None,2025-12-30 18h15.17.636860 +0400,
,18,18,0,,,,0.24,0.23,left,0.7,0.16,-0.18,0.2,0.18,-0.2,6,47,1.5,,,,,right,0,0.06256975000724196,None,,,,,,,,,,,,,0,18,18,35,,,,,21.391513207985554,,,,,,,,,,,,,,,,,,,,,,,,,,,,,,,,,,,,,,,,,,,,,,,,,,,,21.38634541601641,21.391513207985554,21.459432833013125,right,0,0.06256975000724196,None,21.461007083009463,21.752398249984253,9,0.23557236184071945,0.20966194660801327,,,,,,,,,,,,,,,,,,,2025-12-30_18h15.10.769,4_calibr_sum,,2025.1.1,None,2025-12-30 18h15.17.636860 +0400,
,19,19,0,,,,0.17,0.18,right,0.5,0.2,-0.2,-0.22,0.2,0.18,7,45,0.5,,,,,right,1,0.048343875037971884,None,,,,,,,,,,,,,0,19,19,2,,,,,21.75854604097549,,,,,,,,,,,,,,,,,,,,,,,,,,,,,,,,,,,,,,,,,,,,,,,,,,,,21.752892250020523,21.75854604097549,21.808627583028283,right,1,0.048343875037971884,None,21.810573790979106,22.101362916000653,10,0.22621093750058208,0.20838741399262709,,,,,,,,,,,,,,,,,,,2025-12-30_18h15.10.769,4_calibr_sum,,2025.1.1,None,2025-12-30 18h15.17.636860 +0400,
,20,20,0,,,,0.14,0.15,right,0.47,0.75,-0.2,-0.2,0.2,0.2,35,8,1.0,,,,,right,1,0.034151375002693385,None,,,,,,,,,,,,,0,20,20,15,,,,,22.10736004100181,,,,,,,,,,,,,,,,,,,,,,,,,,,,,,,,,,,,,,,,,,,,,,,,,,,,22.102239375002682,22.10736004100181,22.15193754102802,right,1,0.034151375002693385,None,22.152003583032638,22.45222554099746,11,0.21706524404830166,0.20743749992460575,,,,,,,,,,,,,,,,,,,2025-12-30_18h15.10.769,4_calibr_sum,,2025.1.1,None,2025-12-30 18h15.17.636860 +0400,
,21,21,0,,,,0.17,0.18,left,0.3,0.18,-0.3,-0.2,0.3,0.2,5,45,1.5,,,,,right,0,0.014142458036076277,None,,,,,,,,,,,,,0,21,21,30,,,,,22.458500666019972,,,,,,,,,,,,,,,,,,,,,,,,,,,,,,,,,,,,,,,,,,,,,,,,,,,,22.453002416004892,22.458500666019972,22.4751564579783,right,0,0.014142458036076277,None,22.476727582979947,22.768760583014227,11,0.20784148104774597,0.20702904816735268,,,,,,,,,,,,,,,,,,,2025-12-30_18h15.10.769,4_calibr_sum,,2025.1.1,None,2025-12-30 18h15.17.636860 +0400,
,22,22,0,,,,0.22,0.21,left,0.17,0.8,-0.18,-0.22,0.18,0.18,45,5,1.0,,,,,right,0,0.08005641703493893,None,,,,,,,,,,,,,0,22,22,19,,,,,22.774692333012354,,,,,,,,,,,,,,,,,,,,,,,,,,,,,,,,,,,,,,,,,,,,,,,,,,,,22.769582415989134,22.774692333012354,22.858688750013243,right,0,0.08005641703493893,None,22.8587564160116,23.152558790985495,11,0.20228560869936305,0.20414845987054242,,,,,,,,,,,,,,,,,,,2025-12-30_18h15.10.769,4_calibr_sum,,2025.1.1,None,2025-12-30 18h15.17.636860 +0400,
,23,23,0,,,,0.15,0.16,right,0.48,0.15,-0.2,0.21,0.2,0.18,9,25,0.7,,,,,right,1,0.10414783301530406,None,,,,,,,,,,,,,0,23,23,5,,,,,23.158153416006826,,,,,,,,,,,,,,,,,,,,,,,,,,,,,,,,,,,,,,,,,,,,,,,,,,,,23.153202416026033,23.158153416006826,23.269827999989502,right,1,0.10414783301530406,None,23.2713825830142,23.569258750008885,12,0.19819653471252727,0.2008099624793895,,,,,,,,,,,,,,,,,,,2025-12-30_18h15.10.769,4_calibr_sum,,2025.1.1,None,2025-12-30 18h15.17.636860 +0400,
,24,24,0,,,,0.21,0.22,right,0.54,0.22,-0.2,0.21,0.2,0.18,37,7,1.5,,,,,right,1,0.12413991702487692,None,,,,,,,,,,,,,0,24,24,22,,,,,23.57530912500806,,,,,,,,,,,,,,,,,,,,,,,,,,,,,,,,,,,,,,,,,,,,,,,,,,,,23.56971391598927,23.57530912500806,23.703054332989268,right,1,0.12413991702487692,None,23.70311458298238,24.00205675000325,13,0.19523427000502125,0.1972872415602969,,,,,,,,,,,,,,,,,,,2025-12-30_18h15.10.769,4_calibr_sum,,2025.1.1,None,2025-12-30 18h15.17.636860 +0400,
,25,25,0,,,,0.26,0.25,left,0.25,0.25,-0.18,0.21,0.18,0.18,3,45,1.5,,,,,right,0,0.3448866669787094,None,,,,,,,,,,,,,0,25,25,37,,,,,24.00803879101295,,,,,,,,,,,,,,,,,,,,,,,,,,,,,,,,,,,,,,,,,,,,,,,,,,,,24.002621541032568,24.00803879101295,24.01026762498077,right,0,0.3448866669787094,None,24.01165891601704,24.302105374983512,13,0.20099013142708616,0.1955850054740397,,,,,,,,,,,,,,,,,,,2025-12-30_18h15.10.769,4_calibr_sum,,2025.1.1,None,2025-12-30 18h15.17.636860 +0400,
,26,26,0,,,,0.16,0.15,left,0.17,0.7,-0.3,-0.22,0.3,0.18,6,47,1.5,,,,,right,0,0.25773504201788455,None,,,,,,,,,,,,,0,26,26,20,,,,,24.308002375008073,,,,,,,,,,,,,,,,,,,,,,,,,,,,,,,,,,,,,,,,,,,,,,,,,,,,24.302888708014507,24.308002375008073,24.309825207979884,right,0,0.25773504201788455,None,24.309885875030886,24.60237112501636,13,0.20309179478230094,0.19222783354385778,,,,,,,,,,,,,,,,,,,2025-12-30_18h15.10.769,4_calibr_sum,,2025.1.1,None,2025-12-30 18h15.17.636860 +0400,
,27,27,0,,,,0.16,0.17,right,0.49,0.78,-0.2,0.15,0.2,-0.18,30,5,1.0,,,,,right,1,0.28699712501838803,None,,,,,,,,,,,,,0,27,27,17,,,,,24.60797100001946,,,,,,,,,,,,,,,,,,,,,,,,,,,,,,,,,,,,,,,,,,,,,,,,,,,,24.602772500016727,24.60797100001946,24.902767791005317,right,1,0.28699712501838803,None,24.904370707983617,25.201938375015743,14,0.20608841371930403,0.1894051073985696,,,,,,,,,,,,,,,,,,,2025-12-30_18h15.10.769,4_calibr_sum,,2025.1.1,None,2025-12-30 18h15.17.636860 +0400,
,28,28,0,,,,0.14,0.13,left,0.15,0.5,-0.3,0.21,0.3,0.18,45,5,0.7,,,,,right,0,0.206426625023596,None,,,,,,,,,,,,,0,28,28,8,,,,,25.20752233301755,,,,,,,,,,,,,,,,,,,,,,,,,,,,,,,,,,,,,,,,,,,,,,,,,,,,25.202786541020032,25.20752233301755,25.419589790981263,right,0,0.206426625023596,None,25.421059000014793,25.718659583013505,14,0.20610007617807272,0.1861108644649737,,,,,,,,,,,,,,,,,,,2025-12-30_18h15.10.769,4_calibr_sum,,2025.1.1,None,2025-12-30 18h15.17.636860 +0400,
,29,29,0,,,,0.26,0.27,right,0.15,0.5,-0.3,-0.2,0.3,0.2,5,45,1.0,,,,,right,1,0.24641579197486863,None,,,,,,,,,,,,,0,29,29,10,,,,,25.72395499999402,,,,,,,,,,,,,,,,,,,,,,,,,,,,,,,,,,,,,,,,,,,,,,,,,,,,25.719315957976505,25.72395499999402,25.975584250001702,right,1,0.24641579197486863,None,25.977277582976967,26.26884037500713,15,0.20744393337129927,0.18312578014947617,,,,,,,,,,,,,,,,,,,2025-12-30_18h15.10.769,4_calibr_sum,,2025.1.1,None,2025-12-30 18h15.17.636860 +0400,
,30,30,0,,,,0.23,0.17,right,0.52,0.2,-0.3,-0.22,0.3,0.18,36,10,1.5,,,,,right,1,0.49617887497879565,None,,,,,,,,,,,,,0,30,30,29,,,,,26.27476649999153,,,,,,,,,,,,,,,,,,,,,,,,,,,,,,,,,,,,,,,,,,,,,,,,,,,,26.26938562502619,26.27476649999153,26.276741790992673,right,1,0.49617887497879565,None,26.276804250024725,26.56843745801598,16,0.2167579637457346,0.1872319693846612,,,,,,,,,,,,,,,,,,,2025-12-30_18h15.10.769,4_calibr_sum,,2025.1.1,None,2025-12-30 18h15.17.636860 +0400,
,31,31,0,,,,0.14,0.15,right,0.47,0.75,-0.2,-0.2,0.2,0.2,35,8,0.5,,,,,right,1,0.037871416949201375,None,,,,,,,,,,,,,0,31,31,4,,,,,26.574149332998786,,,,,,,,,,,,,,,,,,,,,,,,,,,,,,,,,,,,,,,,,,,,,,,,,,,,26.5692230410059,26.574149332998786,26.619576500030234,right,1,0.037871416949201375,None,26.61962970800232,26.918713665974792,17,0.21116775915834296,0.1868932269856645,,,,,,,,,,,,,,,,,,,2025-12-30_18h15.10.769,4_calibr_sum,,2025.1.1,None,2025-12-30 18h15.17.636860 +0400,
,32,32,0,,,,0.18,0.19,right,0.51,0.8,-0.2,-0.2,0.2,0.2,45,3,0.5,,,,,right,1,0.09891262504970655,None,,,,,,,,,,,,,0,32,32,3,,,,,26.92417958303122,,,,,,,,,,,,,,,,,,,,,,,,,,,,,,,,,,,,,,,,,,,,,,,,,,,,26.91926854097983,26.92417958303122,27.02431779098697,right,1,0.09891262504970655,None,27.0243823750061,27.31902270799037,18,0.20776608842777822,0.18504298153519821,,,,,,,,,,,,,,,,,,,2025-12-30_18h15.10.769,4_calibr_sum,,2025.1.1,None,2025-12-30 18h15.17.636860 +0400,
,33,33,0,,,,0.27,0.26,left,0.52,0.2,-0.18,0.15,0.18,-0.18,20,4,1.5,,,,,right,0,0.10755616700043902,None,,,,,,,,,,,,,0,33,33,38,,,,,27.324400749988854,,,,,,,,,,,,,,,,,,,,,,,,,,,,,,,,,,,,,,,,,,,,,,,,,,,,27.319456416007597,27.324400749988854,27.43636345799314,right,0,0.10755616700043902,None,27.43789433297934,27.735200416005682,18,0.20481873779756235,0.1830860084035385,,,,,,,,,,,,,,,,,,,2025-12-30_18h15.10.769,4_calibr_sum,,2025.1.1,None,2025-12-30 18h15.17.636860 +0400,
,34,34,0,,,,0.2,0.21,right,0.13,0.85,-0.2,-0.2,0.2,0.2,0,45,1.0,,,,,right,1,0.07199645903892815,None,,,,,,,,,,,,,0,34,34,9,,,,,27.740976875007618,,,,,,,,,,,,,,,,,,,,,,,,,,,,,,,,,,,,,,,,,,,,,,,,,,,,27.73594054102432,27.740976875007618,27.81912212498719,right,1,0.07199645903892815,None,27.8207072080113,28.118761165998876,19,0.20102381554731566,0.1818032097469621,,,,,,,,,,,,,,,,,,,2025-12-30_18h15.10.769,4_calibr_sum,,2025.1.1,None,2025-12-30 18h15.17.636860 +0400,
,35,35,0,,,,0.25,0.24,left,0.8,0.17,-0.18,-0.2,0.18,0.2,25,4,1.5,,,,,right,0,0.2626932080020197,None,,,,,,,,,,,,,0,35,35,36,,,,,28.124233249982353,,,,,,,,,,,,,,,,,,,,,,,,,,,,,,,,,,,,,,,,,,,,,,,,,,,,28.119308458000887,28.124233249982353,28.392238833010197,right,0,0.2626932080020197,None,28.39351133297896,28.685763458022848,19,0.202736854226613,0.17954662962209647,,,,,,,,,,,,,,,,,,,2025-12-30_18h15.10.769,4_calibr_sum,,2025.1.1,None,2025-12-30 18h15.17.636860 +0400,
,36,36,0,,,,0.15,0.14,left,0.8,0.16,-0.3,0.15,0.3,-0.18,30,15,0.5,,,,,right,0,0.16553016600664705,None,,,,,,,,,,,,,0,36,36,1,,,,,28.69147795799654,,,,,,,,,,,,,,,,,,,,,,,,,,,,,,,,,,,,,,,,,,,,,,,,,,,,28.686294083017856,28.69147795799654,28.858671625028364,right,0,0.16553016600664705,None,28.8587355830241,29.15176183299627,19,0.2017312680585058,0.1772064487439848,,,,,,,,,,,,,,,,,,,2025-12-30_18h15.10.769,4_calibr_sum,,2025.1.1,None,2025-12-30 18h15.17.636860 +0400,
,37,37,0,,,,0.14,0.13,left,0.15,0.5,-0.3,0.21,0.3,0.18,45,5,0.5,,,,,right,0,0.03778858401346952,None,,,,,,,,,,,,,0,37,37,0,,,,,29.157722875010222,,,,,,,,,,,,,,,,,,,,,,,,,,,,,,,,,,,,,,,,,,,,,,,,,,,,29.15262058301596,29.157722875010222,29.20335000002524,right,0,0.03778858401346952,None,29.203420041012578,29.50262945803115,19,0.1974169868994259,0.1768175205244515,,,,,,,,,,,,,,,,,,,2025-12-30_18h15.10.769,4_calibr_sum,,2025.1.1,None,2025-12-30 18h15.17.636860 +0400,
,38,38,0,,,,0.16,0.15,left,0.17,0.7,-0.3,-0.22,0.3,0.18,6,47,1.5,,,,,right,0,0.14824358304031193,None,,,,,,,,,,,,,0,38,38,27,,,,,29.509291415975895,,,,,,,,,,,,,,,,,,,,,,,,,,,,,,,,,,,,,,,,,,,,,,,,,,,,29.503388457989786,29.509291415975895,29.658950083015952,right,0,0.14824358304031193,None,29.65900991600938,29.951967999979388,19,0.19615613039021787,0.1747088841978402,,,,,,,,,,,,,,,,,,,2025-12-30_18h15.10.769,4_calibr_sum,,2025.1.1,None,2025-12-30 18h15.17.636860 +0400,
,39,39,0,,,,0.25,0.26,right,0.54,0.22,-0.3,0.2,0.3,-0.2,37,7,1.5,,,,,right,1,0.38310975005151704,None,,,,,,,,,,,,,0,39,39,26,,,,,29.958208290976472,,,,,,,,,,,,,,,,,,,,,,,,,,,,,,,,,,,,,,,,,,,,,,,,,,,,29.952638457994908,29.958208290976472,29.95988220802974,right,1,0.38310975005151704,None,29.961770957976114,30.25194124999689,20,0.20082997088175034,0.17496302745118533,,,,,,,,,,,,,,,,,,,2025-12-30_18h15.10.769,4_calibr_sum,,2025.1.1,None,2025-12-30 18h15.17.636860 +0400,
,0,0,0,,,,,,,,,,,,,,,,,,,,,,,,Это было сложно?,5.013333333333334,13.900747167004738,"[(np.float64(5.013333333333334), 13.900747167004738)]",,,,,,,,,,,,,0,0,0,0,30.27101979102008,,,,,,,,,,,,,,,,,,,,,,,,,,,,,,,,,,,,,,,,,,,,,,,,,,,,,,,,,,,,,,,,30.26088408299256,30.27101979102008,30.27101979102008,44.16785033297492,5.013333333333334,13.900747167004738,"[(np.float64(5.013333333333334), 13.900747167004738)]",,,,,,,,,,,,2025-12-30_18h15.10.769,4_calibr_sum,,2025.1.1,None,2025-12-30 18h15.17.636860 +0400,
,1,1,0,,,,,,,,,,,,,,,,,,,,,,,,Вы могли контролировать ситуацию?,5,0.39022391696926206,"[(5, 0.39022391696926206)]",,,,,,,,,,,,,0,1,1,1,44.17508179100696,,,,,,,,,,,,,,,,,,,,,,,,,,,,,,,,,,,,,,,,,,,,,,,,,,,,,,,,,,,,,,,,44.16988670802675,44.17508179100696,44.17508179100696,44.5675647080061,5,0.39022391696926206,"[(5, 0.39022391696926206)]",,,,,,,,,,,,2025-12-30_18h15.10.769,4_calibr_sum,,2025.1.1,None,2025-12-30 18h15.17.636860 +0400,
,2,2,0,,,,,,,,,,,,,,,,,,,,,,,,Насколько результат зависел от Вас?,5,0.3399816669989377,"[(5, 0.3399816669989377)]",,,,,,,,,,,,,0,2,2,2,44.575159166008234,,,,,,,,,,,,,,,,,,,,,,,,,,,,,,,,,,,,,,,,,,,,,,,,,,,,,,,,,,,,,,,,44.57031429099152,44.575159166008234,44.575159166008234,44.917910833028145,5,0.3399816669989377,"[(5, 0.3399816669989377)]",,,,,,,,,,,,2025-12-30_18h15.10.769,4_calibr_sum,,2025.1.1,None,2025-12-30 18h15.17.636860 +0400,
,3,3,0,,,,,,,,,,,,,,,,,,,,,,,,Насколько успешно получалось сравнивать квадраты?,5,1.583567000052426,"[(5, 1.583567000052426)]",,,,,,,,,,,,,0,3,3,3,44.92556333303219,,,,,,,,,,,,,,,,,,,,,,,,,,,,,,,,,,,,,,,,,,,,,,,,,,,,,,,,,,,,,,,,44.92005795799196,44.92556333303219,44.92556333303219,46.50793645798694,5,1.583567000052426,"[(5, 1.583567000052426)]",,,,,,,,,,,,2025-12-30_18h15.10.769,4_calibr_sum,,2025.1.1,None,2025-12-30 18h15.17.636860 +0400,
,4,4,0,,,,,,,,,,,,,,,,,,,,,,,,Вы довольны результатом?,5,0.34989629103802145,"[(5, 0.34989629103802145)]",,,,,,,,,,,,,0,4,4,4,46.51662904099794,,,,,,,,,,,,,,,,,,,,,,,,,,,,,,,,,,,,,,,,,,,,,,,,,,,,,,,,,,,,,,,,46.50973183300812,46.51662904099794,46.51662904099794,46.86797879100777,5,0.34989629103802145,"[(5, 0.34989629103802145)]",,,,,,,,,,,,2025-12-30_18h15.10.769,4_calibr_sum,,2025.1.1,None,2025-12-30 18h15.17.636860 +0400,
,,,,,,,,,,,,,,,,,,,,,,,,,,,,,,,,,,,,,,,,,,,,,,,,,,,,,,,,,,,,,,,,,,,,,,,,,,,,,,,,,,,,,,,,,,,,,,,,,,,,,,,,,,,,,,,,,,,,,,46.871552040975075,46.874591832980514,46.874591832980514,48.16849666601047,None,,,,,,,2025-12-30_18h15.10.769,4_calibr_sum,,2025.1.1,None,2025-12-30 18h15.17.636860 +0400,
,,,,,,,,,,,,,,,,,,,,,,,,,,,,,,,,,,,,,,,,,,,,,,,,,,,,,,,,,,,,,,,,,,,,,,,,,,,,,,,,,,,,,,,,,,,,,,,,,,,,,,,,,,,,,,,,,,,,,,,,,,,48.169045208022,48.17840683303075,48.17840683303075,,,,,,,,,,
