Text,thisN,thisTrialN,thisRepN,BJW_slider.response,BJW_slider.rt,BJW_slider.history,w1,w2,corr_answ,op1,op2,xPos1,yPos1,xPos2,yPos2,or1,or2,time,resp_tren.keys,resp_tren.corr,resp_tren.rt,resp_tren.duration,resp.keys,resp.corr,resp.rt,resp.duration,q_sl,sl_h.response,sl_h.rt,sl_h.history,BJW_trials.thisRepN,BJW_trials.thisTrialN,BJW_trials.thisN,BJW_trials.thisIndex,trials.thisRepN,trials.thisTrialN,trials.thisN,trials.thisIndex,loop_L.thisRepN,loop_L.thisTrialN,loop_L.thisN,loop_L.thisIndex,l_slid.thisRepN,l_slid.thisTrialN,l_slid.thisN,l_slid.thisIndex,thisRow.t,notes,Main_instr.started,main_instr_text.started,main_instr_key.started,Main_instr.stopped,main_instr_key.keys,main_instr_key.rt,main_instr_key.duration,instr_BJW.started,BJW_inst_text.started,BJW_key_resp.started,instr_BJW.stopped,BJW_key_resp.keys,BJW_key_resp.rt,BJW_key_resp.duration,BJW.started,BJW_text.started,BJW.stopped,BJW_trials.BJW_slider.response,BJW_trials.BJW_slider.rt,BJW_trials.BJW_slider.history,instr.started,instr.stopped,resp_instr.keys,resp_instr.rt,resp_instr.duration,instr_2.started,text_3.started,key_resp.started,instr_2.stopped,key_resp.keys,key_resp.rt,key_resp.duration,tren.started,pol_1.started,pol_2.started,text_tren.started,tren.stopped,trials.resp_tren.keys,trials.resp_tren.corr,trials.resp_tren.rt,trials.resp_tren.duration,fb_tren.started,text_fb_tren.started,fb_tren.stopped,text_fb_tren.stopped,instr3.started,instr3.stopped,reesp_instr.keys,reesp_instr.rt,reesp_instr.duration,task_L.started,resp.started,task_L.stopped,loop_L.resp.keys,loop_L.resp.corr,loop_L.resp.rt,loop_L.resp.duration,fb_task.started,fb_task.stopped,corr_sum,mean_rt,sd_rt,resp.stopped,slider.started,sl_h.started,text_sl.started,slider.stopped,l_slid.sl_h.response,l_slid.sl_h.rt,l_slid.sl_h.history,fin_sum.started,text_5.started,key_resp_2.started,fin_sum.stopped,key_resp_2.keys,Get_points.started,gp_key_resp.started,Get_points.stopped,gp_key_resp.keys,gp_key_resp.rt,gp_key_resp.duration,get_textbox.text,thanks.started,text_th.started,text_th.stopped,thanks.stopped,name,gender,ag,date,expName,expVersion,psychopyVersion,frameRate,expStart,
,,,,,,,,,,,,,,,,,,,,,,,,,,,,,,,,,,,,,,,,,,,,,,,,,0.027740082994569093,0.03654533298686147,0.03654533298686147,0.48373908299254254,space,0.4105833329958841,None,,,,,,,,,,,,,,,,,,,,,,,,,,,,,,,,,,,,,,,,,,,,,,,,,,,,,,,,,,,,,,,,,,,,,,,,,,,,,,,,g,,,2025-12-30_17h39.22.720,4_calibr_sum,,2025.1.1,None,2025-12-30 17h39.35.683915 +0400,
,,,,,,,,,,,,,,,,,,,,,,,,,,,,,,,,,,,,,,,,,,,,,,,,,,,,,,,,0.48382179194595665,0.493023874994833,0.493023874994833,0.5995839169481769,space,0.1032197920139879,None,,,,,,,,,,,,,,,,,,,,,,,,,,,,,,,,,,,,,,,,,,,,,,,,,,,,,,,,,,,,,,,,,,,,,,,,,g,,,2025-12-30_17h39.22.720,4_calibr_sum,,2025.1.1,None,2025-12-30 17h39.35.683915 +0400,
"Я считаю, что, по большому счету, заслуживаю того, что происходит со мной.",0,0,0,3.0,1.705493875022512,"[(3.0, 1.705493875022512)]",,,,,,,,,,,,,,,,,,,,,,,,,0,0,0,0,,,,,,,,,,,,,0.652416207944043,,,,,,,,,,,,,,,,0.6166128749609925,0.652416207944043,2.322805999952834,3.0,1.705493875022512,"[(3.0, 1.705493875022512)]",,,,,,,,,,,,,,,,,,,,,,,,,,,,,,,,,,,,,,,,,,,,,,,,,,,,,,,,,,,,,,,,,,,g,,,2025-12-30_17h39.22.720,4_calibr_sum,,2025.1.1,None,2025-12-30 17h39.35.683915 +0400,
"Как правило, жизнь ко мне справедлива.",1,1,0,3.0,0.11767629202222452,"[(3.0, 0.11767629202222452)]",,,,,,,,,,,,,,,,,,,,,,,,,0,1,1,1,,,,,,,,,,,,,2.331903207988944,,,,,,,,,,,,,,,,2.32511762494687,2.331903207988944,2.4483399999444373,3.0,0.11767629202222452,"[(3.0, 0.11767629202222452)]",,,,,,,,,,,,,,,,,,,,,,,,,,,,,,,,,,,,,,,,,,,,,,,,,,,,,,,,,,,,,,,,,,,g,,,2025-12-30_17h39.22.720,4_calibr_sum,,2025.1.1,None,2025-12-30 17h39.35.683915 +0400,
"Я верю, что обычно получаю то, что заслуживаю.",2,2,0,3.0,0.12534687499282882,"[(3.0, 0.12534687499282882)]",,,,,,,,,,,,,,,,,,,,,,,,,0,2,2,2,,,,,,,,,,,,,2.4576557079562917,,,,,,,,,,,,,,,,2.4499314579879865,2.4576557079562917,2.581071874999907,3.0,0.12534687499282882,"[(3.0, 0.12534687499282882)]",,,,,,,,,,,,,,,,,,,,,,,,,,,,,,,,,,,,,,,,,,,,,,,,,,,,,,,,,,,,,,,,,,,g,,,2025-12-30_17h39.22.720,4_calibr_sum,,2025.1.1,None,2025-12-30 17h39.35.683915 +0400,
В моей жизни в общем и целом всё происходит справедливо.,3,3,0,3.0,0.11562429100740701,"[(3.0, 0.11562429100740701)]",,,,,,,,,,,,,,,,,,,,,,,,,0,3,3,3,,,,,,,,,,,,,2.591120917000808,,,,,,,,,,,,,,,,2.5834953749435954,2.591120917000808,2.7070370829897,3.0,0.11562429100740701,"[(3.0, 0.11562429100740701)]",,,,,,,,,,,,,,,,,,,,,,,,,,,,,,,,,,,,,,,,,,,,,,,,,,,,,,,,,,,,,,,,,,,g,,,2025-12-30_17h39.22.720,4_calibr_sum,,2025.1.1,None,2025-12-30 17h39.35.683915 +0400,
"В моей жизни несправедливость – скорее исключение, чем правило.",4,4,0,3.0,0.11669004202121869,"[(3.0, 0.11669004202121869)]",,,,,,,,,,,,,,,,,,,,,,,,,0,4,4,4,,,,,,,,,,,,,2.716351749957539,,,,,,,,,,,,,,,,2.709056041960139,2.716351749957539,2.831169582961593,3.0,0.11669004202121869,"[(3.0, 0.11669004202121869)]",,,,,,,,,,,,,,,,,,,,,,,,,,,,,,,,,,,,,,,,,,,,,,,,,,,,,,,,,,,,,,,,,,,g,,,2025-12-30_17h39.22.720,4_calibr_sum,,2025.1.1,None,2025-12-30 17h39.35.683915 +0400,
"Я считаю, что в целом в моей жизни всё справедливо.",5,5,0,3.0,0.2750676249852404,"[(3.0, 0.2750676249852404)]",,,,,,,,,,,,,,,,,,,,,,,,,0,5,5,5,,,,,,,,,,,,,2.8405779999447986,,,,,,,,,,,,,,,,2.8325993749895133,2.8405779999447986,3.1137547499965876,3.0,0.2750676249852404,"[(3.0, 0.2750676249852404)]",,,,,,,,,,,,,,,,,,,,,,,,,,,,,,,,,,,,,,,,,,,,,,,,,,,,,,,,,,,,,,,,,,,g,,,2025-12-30_17h39.22.720,4_calibr_sum,,2025.1.1,None,2025-12-30 17h39.35.683915 +0400,
"Я думаю, что важные решения, которые касаются меня, обычно справедливы.",6,6,0,3.0,0.12689591699745506,"[(3.0, 0.12689591699745506)]",,,,,,,,,,,,,,,,,,,,,,,,,0,6,6,6,,,,,,,,,,,,,3.1235141669749282,,,,,,,,,,,,,,,,3.115792957949452,3.1235141669749282,3.248128999955952,3.0,0.12689591699745506,"[(3.0, 0.12689591699745506)]",,,,,,,,,,,,,,,,,,,,,,,,,,,,,,,,,,,,,,,,,,,,,,,,,,,,,,,,,,,,,,,,,,,g,,,2025-12-30_17h39.22.720,4_calibr_sum,,2025.1.1,None,2025-12-30 17h39.35.683915 +0400,
"Я считаю, что в целом мир справедлив.",7,7,0,3.0,0.13208141701761633,"[(3.0, 0.13208141701761633)]",,,,,,,,,,,,,,,,,,,,,,,,,0,7,7,7,,,,,,,,,,,,,3.2571328329504468,,,,,,,,,,,,,,,,3.2494582919753157,3.2571328329504468,3.3901642919518054,3.0,0.13208141701761633,"[(3.0, 0.13208141701761633)]",,,,,,,,,,,,,,,,,,,,,,,,,,,,,,,,,,,,,,,,,,,,,,,,,,,,,,,,,,,,,,,,,,,g,,,2025-12-30_17h39.22.720,4_calibr_sum,,2025.1.1,None,2025-12-30 17h39.35.683915 +0400,
"Я считаю, что, по большому счету, люди получают то, что заслуживают.",8,8,0,3.0,0.13348070898791775,"[(3.0, 0.13348070898791775)]",,,,,,,,,,,,,,,,,,,,,,,,,0,8,8,8,,,,,,,,,,,,,3.3990502919768915,,,,,,,,,,,,,,,,3.391826749953907,3.3990502919768915,3.530949707957916,3.0,0.13348070898791775,"[(3.0, 0.13348070898791775)]",,,,,,,,,,,,,,,,,,,,,,,,,,,,,,,,,,,,,,,,,,,,,,,,,,,,,,,,,,,,,,,,,,,g,,,2025-12-30_17h39.22.720,4_calibr_sum,,2025.1.1,None,2025-12-30 17h39.35.683915 +0400,
"Я уверен, что справедливость всегда побеждает несправедливость.",9,9,0,3.0,0.14175137504935265,"[(3.0, 0.14175137504935265)]",,,,,,,,,,,,,,,,,,,,,,,,,0,9,9,9,,,,,,,,,,,,,3.5401913749519736,,,,,,,,,,,,,,,,3.5325112919672392,3.5401913749519736,3.680075207957998,3.0,0.14175137504935265,"[(3.0, 0.14175137504935265)]",,,,,,,,,,,,,,,,,,,,,,,,,,,,,,,,,,,,,,,,,,,,,,,,,,,,,,,,,,,,,,,,,,,g,,,2025-12-30_17h39.22.720,4_calibr_sum,,2025.1.1,None,2025-12-30 17h39.35.683915 +0400,
"Я убежден, что, если человек пережил несправедливость, в будущем это возместится.",10,10,0,3.0,0.1345005410257727,"[(3.0, 0.1345005410257727)]",,,,,,,,,,,,,,,,,,,,,,,,,0,10,10,10,,,,,,,,,,,,,3.6902306669508107,,,,,,,,,,,,,,,,3.682292041950859,3.6902306669508107,3.8228978749830276,3.0,0.1345005410257727,"[(3.0, 0.1345005410257727)]",,,,,,,,,,,,,,,,,,,,,,,,,,,,,,,,,,,,,,,,,,,,,,,,,,,,,,,,,,,,,,,,,,,g,,,2025-12-30_17h39.22.720,4_calibr_sum,,2025.1.1,None,2025-12-30 17h39.35.683915 +0400,
"Я твердо уверен, что несправедливость в самых разных жизненных ситуациях (в семье, учебе и т. д.) – скорее исключение, чем правило.",11,11,0,3.0,0.12473804102046415,"[(3.0, 0.12473804102046415)]",,,,,,,,,,,,,,,,,,,,,,,,,0,11,11,11,,,,,,,,,,,,,3.832867332966998,,,,,,,,,,,,,,,,3.825710082950536,3.832867332966998,3.9563444999512285,3.0,0.12473804102046415,"[(3.0, 0.12473804102046415)]",,,,,,,,,,,,,,,,,,,,,,,,,,,,,,,,,,,,,,,,,,,,,,,,,,,,,,,,,,,,,,,,,,,g,,,2025-12-30_17h39.22.720,4_calibr_sum,,2025.1.1,None,2025-12-30 17h39.35.683915 +0400,
"Я думаю, что все, кто принимает важные решения, стремятся быть справедливыми.",12,12,0,3.0,0.14063270902261138,"[(3.0, 0.14063270902261138)]",,,,,,,,,,,,,,,,,,,,,,,,,0,12,12,12,,,,,,,,,,,,,3.9655432919971645,,,,,,,,,,,,,,,,3.958191582991276,3.9655432919971645,4.107008166960441,3.0,0.14063270902261138,"[(3.0, 0.14063270902261138)]",,,,,,,,,,,,,,,,,,,,,,,,,,,,,,,,,,,,,,,,,,,,,,,,,,,,,,,,,,,,,,,,,,,g,,,2025-12-30_17h39.22.720,4_calibr_sum,,2025.1.1,None,2025-12-30 17h39.35.683915 +0400,
,,,,,,,,,,,,,,,,,,,,,,,,,,,,,,,,,,,,,,,,,,,,,,,,,,,,,,,,,,,,,,,,,,,,,4.107062082970515,4.1072730829473585,space,0.4749874169938266,None,,,,,,,,,,,,,,,,,,,,,,,,,,,,,,,,,,,,,,,,,,,,,,,,,,,,,,,,,,,,,,g,,,2025-12-30_17h39.22.720,4_calibr_sum,,2025.1.1,None,2025-12-30 17h39.35.683915 +0400,
,,,,,,,,,,,,,,,,,,,,,,,,,,,,,,,,,,,,,,,,,,,,,,,,,,,,,,,,,,,,,,,,,,,,,,,,,,4.107285124948248,4.111462249944452,4.111462249944452,5.3785275829723105,space,1.263996166002471,None,,,,,,,,,,,,,,,,,,,,,,,,,,,,,,,,,,,,,,,,,,,,,,,,,,,,,,,g,,,2025-12-30_17h39.22.720,4_calibr_sum,,2025.1.1,None,2025-12-30 17h39.35.683915 +0400,
,0,0,0,,,,0.17,0.16,left,0.3,0.18,-0.3,-0.2,0.3,0.2,5,45,1.0,right,0,0.9907408750150353,None,,,,,,,,,,,,,0,0,0,2,,,,,,,,,5.40569724998204,,,,,,,,,,,,,,,,,,,,,,,,,,,,,,,,,,5.389655999955721,5.40569724998204,5.40569724998204,5.40569724998204,6.383995749987662,right,0,0.9907408750150353,None,6.387265124998521,6.454289749963209,6.891434332996141,,,,,,,,,,,,,,,,,,,,,,,,,,,,,,,,,,,,,,,,,,,g,,,2025-12-30_17h39.22.720,4_calibr_sum,,2025.1.1,None,2025-12-30 17h39.35.683915 +0400,
,1,1,0,,,,0.28,0.27,left,0.13,0.85,-0.18,-0.22,0.18,0.18,5,45,1.5,right,0,0.2878985410206951,None,,,,,,,,,,,,,0,1,1,5,,,,,,,,,6.900745999999344,,,,,,,,,,,,,,,,,,,,,,,,,,,,,,,,,,6.892161624971777,6.900745999999344,6.900745999999344,6.900745999999344,7.183906582999043,right,0,0.2878985410206951,None,7.1840079999528825,7.193233749945648,7.682004749949556,7.692692957993131,,,,,,,,,,,,,,,,,,,,,,,,,,,,,,,,,,,,,,,,,,g,,,2025-12-30_17h39.22.720,4_calibr_sum,,2025.1.1,None,2025-12-30 17h39.35.683915 +0400,
,2,2,0,,,,0.16,0.15,left,0.17,0.7,-0.3,-0.22,0.3,0.18,6,47,1.0,right,0,0.11040891701122746,None,,,,,,,,,,,,,0,2,2,1,,,,,,,,,7.692692957993131,,,,,,,,,,,,,,,,,,,,,,,,,,,,,,,,,,7.683304916950874,7.692692957993131,7.692692957993131,7.692692957993131,7.803404374979436,right,0,0.11040891701122746,None,7.803497291984968,7.81403266696725,8.300780166988261,8.311010791978333,,,,,,,,,,,,,,,,,,,,,,,,,,,,,,,,,,,,,,,,,,g,,,2025-12-30_17h39.22.720,4_calibr_sum,,2025.1.1,None,2025-12-30 17h39.35.683915 +0400,
,3,3,0,,,,0.22,0.21,left,0.17,0.8,-0.18,-0.22,0.18,0.18,45,5,1.0,right,0,0.21635770803550258,None,,,,,,,,,,,,,0,3,3,0,,,,,,,,,8.311010791978333,,,,,,,,,,,,,,,,,,,,,,,,,,,,,,,,,,8.301527332980186,8.311010791978333,8.311010791978333,8.311010791978333,8.53583762497874,right,0,0.21635770803550258,None,8.535915457992814,8.546887916978449,9.034779874957167,9.045716999971773,,,,,,,,,,,,,,,,,,,,,,,,,,,,,,,,,,,,,,,,,,g,,,2025-12-30_17h39.22.720,4_calibr_sum,,2025.1.1,None,2025-12-30 17h39.35.683915 +0400,
,4,4,0,,,,0.24,0.25,right,0.13,0.85,-0.3,-0.2,0.3,0.2,0,45,1.5,right,1,0.17396695801289752,None,,,,,,,,,,,,,0,4,4,6,,,,,,,,,9.045716999971773,,,,,,,,,,,,,,,,,,,,,,,,,,,,,,,,,,9.035901166964322,9.045716999971773,9.045716999971773,9.045716999971773,9.217627999954857,right,1,0.17396695801289752,None,9.220703874947503,9.2301652499591,9.717718707979657,9.728606416960247,,,,,,,,,,,,,,,,,,,,,,,,,,,,,,,,,,,,,,,,,,g,,,2025-12-30_17h39.22.720,4_calibr_sum,,2025.1.1,None,2025-12-30 17h39.35.683915 +0400,
,5,5,0,,,,0.22,0.23,right,0.15,0.5,-0.2,0.15,0.2,-0.18,45,3,1.5,right,1,0.4124789169873111,None,,,,,,,,,,,,,0,5,5,4,,,,,,,,,9.728606416960247,,,,,,,,,,,,,,,,,,,,,,,,,,,,,,,,,,9.718834124971181,9.728606416960247,9.728606416960247,9.728606416960247,10.135691124945879,right,1,0.4124789169873111,None,10.135793166991789,10.146199707989581,10.633121499966364,10.644447957980447,,,,,,,,,,,,,,,,,,,,,,,,,,,,,,,,,,,,,,,,,,g,,,2025-12-30_17h39.22.720,4_calibr_sum,,2025.1.1,None,2025-12-30 17h39.35.683915 +0400,
,6,6,0,,,,0.21,0.22,right,0.54,0.22,-0.2,0.21,0.2,0.18,37,7,1.5,right,1,0.07492716697743163,None,,,,,,,,,,,,,0,6,6,3,,,,,,,,,10.644447957980447,,,,,,,,,,,,,,,,,,,,,,,,,,,,,,,,,,10.634225791960489,10.644447957980447,10.644447957980447,10.644447957980447,10.726696832978632,right,1,0.07492716697743163,None,10.726782707963139,10.734700999979395,11.226303749950603,11.256353582954034,,,,,,,,,,,,,,,,,,,,,,,,,,,,,,,,,,,,,,,,,,g,,,2025-12-30_17h39.22.720,4_calibr_sum,,2025.1.1,None,2025-12-30 17h39.35.683915 +0400,
,,,,,,,,,,,,,,,,,,,,,,,,,,,,,,,,,,,,,,,,,,,,,,,,,,,,,,,,,,,,,,,,,,,,,,,,,,,,,,,,,,,,,,,,,,,,,,11.22654020797927,11.227161499962676,space,0.2676829589763656,None,,,,,,,,,,,,,,,,,,,,,,,,,,,,,,,,,,,,,g,,,2025-12-30_17h39.22.720,4_calibr_sum,,2025.1.1,None,2025-12-30 17h39.35.683915 +0400,
,0,0,0,,,,0.25,0.26,right,0.54,0.22,-0.3,0.2,0.3,-0.2,37,7,1.5,,,,,right,1,0.10997595795197412,None,,,,,,,,,,,,,0,0,0,26,,,,,11.256353582954034,,,,,,,,,,,,,,,,,,,,,,,,,,,,,,,,,,,,,,,,,,,,,,,,,,,,11.24766216694843,11.256353582954034,11.375894332944881,right,1,0.10997595795197412,None,11.38087195798289,11.67576208297396,1,0.10997595795197412,0.0,,,,,,,,,,,,,,,,,,,,,,,,,g,,,2025-12-30_17h39.22.720,4_calibr_sum,,2025.1.1,None,2025-12-30 17h39.35.683915 +0400,
,1,1,0,,,,0.2,0.21,left,0.15,0.6,-0.3,0.21,0.3,0.18,6,47,1.5,,,,,right,0,0.3009043330093846,None,,,,,,,,,,,,,0,1,1,33,,,,,11.6854859169689,,,,,,,,,,,,,,,,,,,,,,,,,,,,,,,,,,,,,,,,,,,,,,,,,,,,11.676871291943826,11.6854859169689,11.996109832951333,right,0,0.3009043330093846,None,11.999773166957311,12.29217291699024,1,0.20544014548067935,0.09546418752870522,,,,,,,,,,,,,,,,,,,,,,,,,g,,,2025-12-30_17h39.22.720,4_calibr_sum,,2025.1.1,None,2025-12-30 17h39.35.683915 +0400,
,2,2,0,,,,0.22,0.23,right,0.15,0.5,-0.2,0.15,0.2,-0.18,45,3,1.5,,,,,right,1,0.2309984170133248,None,,,,,,,,,,,,,0,2,2,23,,,,,12.301793957944028,,,,,,,,,,,,,,,,,,,,,,,,,,,,,,,,,,,,,,,,,,,,,,,,,,,,12.293363832985051,12.301793957944028,12.543185249960516,right,1,0.2309984170133248,None,12.5453426669701,12.842653707950376,2,0.2139595693248945,0.07887184900595794,,,,,,,,,,,,,,,,,,,,,,,,,g,,,2025-12-30_17h39.22.720,4_calibr_sum,,2025.1.1,None,2025-12-30 17h39.35.683915 +0400,
,3,3,0,,,,0.13,0.14,right,0.46,0.25,-0.2,0.2,0.2,-0.2,10,25,1.0,,,,,right,1,0.10140308301197365,None,,,,,,,,,,,,,0,3,3,14,,,,,12.85222508298466,,,,,,,,,,,,,,,,,,,,,,,,,,,,,,,,,,,,,,,,,,,,,,,,,,,,12.843463041994255,12.85222508298466,12.959786124993116,right,1,0.10140308301197365,None,12.959865499986336,13.258742874953896,3,0.18582044774666429,0.08391070798055059,,,,,,,,,,,,,,,,,,,,,,,,,g,,,2025-12-30_17h39.22.720,4_calibr_sum,,2025.1.1,None,2025-12-30 17h39.35.683915 +0400,
,4,4,0,,,,0.25,0.24,left,0.8,0.17,-0.18,-0.2,0.18,0.2,25,4,1.5,,,,,right,0,0.1449452079832554,None,,,,,,,,,,,,,0,4,4,36,,,,,13.26955841697054,,,,,,,,,,,,,,,,,,,,,,,,,,,,,,,,,,,,,,,,,,,,,,,,,,,,13.259962416952476,13.26955841697054,13.41874991694931,right,0,0.1449452079832554,None,13.420788874966092,13.715530457964633,3,0.1776453997939825,0.07681231129937684,,,,,,,,,,,,,,,,,,,,,,,,,g,,,2025-12-30_17h39.22.720,4_calibr_sum,,2025.1.1,None,2025-12-30 17h39.35.683915 +0400,
,5,5,0,,,,0.2,0.21,right,0.13,0.85,-0.2,-0.2,0.2,0.2,0,45,1.0,,,,,right,1,0.12688058300409466,None,,,,,,,,,,,,,0,5,5,9,,,,,13.726319541980047,,,,,,,,,,,,,,,,,,,,,,,,,,,,,,,,,,,,,,,,,,,,,,,,,,,,13.716698707954492,13.726319541980047,13.860606624977663,right,1,0.12688058300409466,None,13.862786832964048,14.157823957968503,4,0.16918459699566787,0.07262714294660656,,,,,,,,,,,,,,,,,,,,,,,,,g,,,2025-12-30_17h39.22.720,4_calibr_sum,,2025.1.1,None,2025-12-30 17h39.35.683915 +0400,
,6,6,0,,,,0.21,0.22,right,0.54,0.22,-0.2,0.21,0.2,0.18,37,7,1.5,,,,,right,1,0.11378695897292346,None,,,,,,,,,,,,,0,6,6,22,,,,,14.1689752919483,,,,,,,,,,,,,,,,,,,,,,,,,,,,,,,,,,,,,,,,,,,,,,,,,,,,14.158778207958676,14.1689752919483,14.287040832976345,right,1,0.11378695897292346,None,14.287130791984964,14.582310166966636,5,0.16127064870670438,0.06997825745123291,,,,,,,,,,,,,,,,,,,,,,,,,g,,,2025-12-30_17h39.22.720,4_calibr_sum,,2025.1.1,None,2025-12-30 17h39.35.683915 +0400,
,7,7,0,,,,0.22,0.21,left,0.17,0.8,-0.18,-0.22,0.18,0.18,45,5,1.0,,,,,None,0,,,,,,,,,,,,,,,0,7,7,19,,,,,14.608362166967709,,,,,,,,,,,,,,,,,,,,,,,,,,,,,,,,,,,,,,,,,,,,,,,,,,,,14.583563082967885,14.608362166967709,15.593676499964204,None,0,,,15.598758916952647,15.890922541962937,5,0.16127064870670438,0.06997825745123291,15.607284874946345,,,,,,,,,,,,,,,,,,,,,,,,g,,,2025-12-30_17h39.22.720,4_calibr_sum,,2025.1.1,None,2025-12-30 17h39.35.683915 +0400,
,8,8,0,,,,0.15,0.16,right,0.48,0.15,-0.2,0.21,0.2,0.18,9,25,0.7,,,,,None,0,,,,,,,,,,,,,,,0,8,8,5,,,,,15.902283332950901,,,,,,,,,,,,,,,,,,,,,,,,,,,,,,,,,,,,,,,,,,,,,,,,,,,,15.891806457948405,15.902283332950901,16.593297332990915,None,0,,,16.59345599997323,16.89116199995624,5,0.16127064870670438,0.06997825745123291,16.60093945794506,,,,,,,,,,,,,,,,,,,,,,,,g,,,2025-12-30_17h39.22.720,4_calibr_sum,,2025.1.1,None,2025-12-30 17h39.35.683915 +0400,
,9,9,0,,,,0.15,0.14,left,0.8,0.16,-0.3,0.15,0.3,-0.18,30,15,1.0,,,,,right,0,0.7415485410019755,None,,,,,,,,,,,,,0,9,9,11,,,,,16.901425541960634,,,,,,,,,,,,,,,,,,,,,,,,,,,,,,,,,,,,,,,,,,,,,,,,,,,,16.891970832948573,16.901425541960634,17.65209741698345,right,0,0.7415485410019755,None,17.654202416946646,17.95217408298049,5,0.23380538524361327,0.20276551231107734,,,,,,,,,,,,,,,,,,,,,,,,,g,,,2025-12-30_17h39.22.720,4_calibr_sum,,2025.1.1,None,2025-12-30 17h39.35.683915 +0400,
,10,10,0,,,,0.14,0.15,right,0.47,0.75,-0.2,-0.2,0.2,0.2,35,8,0.5,,,,,None,0,,,,,,,,,,,,,,,0,10,10,4,,,,,17.962218957953155,,,,,,,,,,,,,,,,,,,,,,,,,,,,,,,,,,,,,,,,,,,,,,,,,,,,17.953304791997653,17.962218957953155,18.449954582960345,None,0,,,18.452511582989246,18.756777041999158,5,0.23380538524361327,0.20276551231107734,18.47426245798124,,,,,,,,,,,,,,,,,,,,,,,,g,,,2025-12-30_17h39.22.720,4_calibr_sum,,2025.1.1,None,2025-12-30 17h39.35.683915 +0400,
,11,11,0,,,,0.17,0.18,left,0.3,0.18,-0.3,-0.2,0.3,0.2,5,45,1.5,,,,,right,0,0.634733916958794,None,,,,,,,,,,,,,0,11,11,30,,,,,18.766506707994267,,,,,,,,,,,,,,,,,,,,,,,,,,,,,,,,,,,,,,,,,,,,,,,,,,,,18.757557082979474,18.766506707994267,19.409487874945626,right,0,0.634733916958794,None,19.411232457961887,19.709810416970868,5,0.2783529998786334,0.22895756561677721,,,,,,,,,,,,,,,,,,,,,,,,,g,,,2025-12-30_17h39.22.720,4_calibr_sum,,2025.1.1,None,2025-12-30 17h39.35.683915 +0400,
,12,12,0,,,,0.26,0.25,left,0.25,0.25,-0.18,0.21,0.18,0.18,3,45,1.5,,,,,right,0,0.23712787497788668,None,,,,,,,,,,,,,0,12,12,37,,,,,19.721218166989274,,,,,,,,,,,,,,,,,,,,,,,,,,,,,,,,,,,,,,,,,,,,,,,,,,,,19.710993249958847,19.721218166989274,19.966414291993715,right,0,0.23712787497788668,None,19.966520624991972,20.266915791959036,5,0.2742304873885587,0.21756002884473552,,,,,,,,,,,,,,,,,,,,,,,,,g,,,2025-12-30_17h39.22.720,4_calibr_sum,,2025.1.1,None,2025-12-30 17h39.35.683915 +0400,
,13,13,0,,,,0.23,0.22,left,0.6,0.15,-0.18,-0.2,0.18,0.2,30,15,1.5,,,,,right,0,0.1432672920054756,None,,,,,,,,,,,,,0,13,13,39,,,,,20.29188458295539,,,,,,,,,,,,,,,,,,,,,,,,,,,,,,,,,,,,,,,,,,,,,,,,,,,,20.26770891697379,20.29188458295539,20.444883916992694,right,0,0.1432672920054756,None,20.44503054197412,20.74166024994338,5,0.26232474235373293,0.21082431411463995,,,,,,,,,,,,,,,,,,,,,,,,,g,,,2025-12-30_17h39.22.720,4_calibr_sum,,2025.1.1,None,2025-12-30 17h39.35.683915 +0400,
,14,14,0,,,,0.18,0.19,right,0.51,0.8,-0.2,-0.2,0.2,0.2,45,3,0.5,,,,,right,1,0.2172724159900099,None,,,,,,,,,,,,,0,14,14,3,,,,,20.750816457963083,,,,,,,,,,,,,,,,,,,,,,,,,,,,,,,,,,,,,,,,,,,,,,,,,,,,20.742420208000112,20.750816457963083,20.994256582984235,right,1,0.2172724159900099,None,20.997108249983285,21.2924132499611,6,0.2585703818234227,0.20223261669751266,,,,,,,,,,,,,,,,,,,,,,,,,g,,,2025-12-30_17h39.22.720,4_calibr_sum,,2025.1.1,None,2025-12-30 17h39.35.683915 +0400,
,15,15,0,,,,0.17,0.16,left,0.3,0.18,-0.3,-0.2,0.3,0.2,5,45,1.5,,,,,right,0,0.24085862503852695,None,,,,,,,,,,,,,0,15,15,21,,,,,21.303284291992895,,,,,,,,,,,,,,,,,,,,,,,,,,,,,,,,,,,,,,,,,,,,,,,,,,,,21.293588499946054,21.303284291992895,21.561297707958147,right,0,0.24085862503852695,None,21.563397041987628,21.85886733297957,6,0.25720793899381533,0.19435612637001673,,,,,,,,,,,,,,,,,,,,,,,,,g,,,2025-12-30_17h39.22.720,4_calibr_sum,,2025.1.1,None,2025-12-30 17h39.35.683915 +0400,
,16,16,0,,,,0.12,0.13,right,0.45,0.85,-0.2,0.0,0.2,0.2,5,10,1.0,,,,,right,1,0.8122687499853782,None,,,,,,,,,,,,,0,16,16,12,,,,,21.867994124942925,,,,,,,,,,,,,,,,,,,,,,,,,,,,,,,,,,,,,,,,,,,,,,,,,,,,21.86018279194832,21.867994124942925,22.693279874976724,right,1,0.8122687499853782,None,22.695372249989305,22.992061249969993,7,0.29685513977892697,0.235607398414265,,,,,,,,,,,,,,,,,,,,,,,,,g,,,2025-12-30_17h39.22.720,4_calibr_sum,,2025.1.1,None,2025-12-30 17h39.35.683915 +0400,
,17,17,0,,,,0.12,0.13,right,0.45,0.85,-0.2,0.0,0.2,0.2,5,10,1.5,,,,,right,1,1.4220614589867182,None,,,,,,,,,,,,,0,17,17,28,,,,,23.002096041978803,,,,,,,,,,,,,,,,,,,,,,,,,,,,,,,,,,,,,,,,,,,,,,,,,,,,22.993232499982696,23.002096041978803,24.427736624958925,right,1,1.4220614589867182,None,24.427842499979306,24.726152374991216,8,0.3718688943927797,0.36137101495016366,,,,,,,,,,,,,,,,,,,,,,,,,g,,,2025-12-30_17h39.22.720,4_calibr_sum,,2025.1.1,None,2025-12-30 17h39.35.683915 +0400,
,18,18,0,,,,0.23,0.17,right,0.52,0.2,-0.3,-0.22,0.3,0.18,36,10,1.5,,,,,right,1,0.396648499998264,None,,,,,,,,,,,,,0,18,18,29,,,,,24.73835699999472,,,,,,,,,,,,,,,,,,,,,,,,,,,,,,,,,,,,,,,,,,,,,,,,,,,,24.72751449997304,24.73835699999472,25.137533541943412,right,1,0.396648499998264,None,25.137626874959096,25.430300041974988,9,0.3734176197431225,0.34994738968363714,,,,,,,,,,,,,,,,,,,,,,,,,g,,,2025-12-30_17h39.22.720,4_calibr_sum,,2025.1.1,None,2025-12-30 17h39.35.683915 +0400,
,19,19,0,,,,0.16,0.15,left,0.17,0.7,-0.3,-0.22,0.3,0.18,6,47,1.5,,,,,right,0,0.3741138749755919,None,,,,,,,,,,,,,0,19,19,20,,,,,25.441028291999828,,,,,,,,,,,,,,,,,,,,,,,,,,,,,,,,,,,,,,,,,,,,,,,,,,,,25.431327207945287,25.441028291999828,25.81778779195156,right,0,0.3741138749755919,None,25.819751082977746,26.1176586249494,9,0.37345857593326776,0.3394988750737361,,,,,,,,,,,,,,,,,,,,,,,,,g,,,2025-12-30_17h39.22.720,4_calibr_sum,,2025.1.1,None,2025-12-30 17h39.35.683915 +0400,
,20,20,0,,,,0.16,0.15,left,0.17,0.7,-0.3,-0.22,0.3,0.18,6,47,1.5,,,,,right,0,0.5832189999637194,None,,,,,,,,,,,,,0,20,20,27,,,,,26.127938916964922,,,,,,,,,,,,,,,,,,,,,,,,,,,,,,,,,,,,,,,,,,,,,,,,,,,,26.119067666993942,26.127938916964922,26.716460791998543,right,0,0.5832189999637194,None,26.71655983297387,27.010101999971084,9,0.38511193282384837,0.3334138475598838,,,,,,,,,,,,,,,,,,,,,,,,,g,,,2025-12-30_17h39.22.720,4_calibr_sum,,2025.1.1,None,2025-12-30 17h39.35.683915 +0400,
,21,21,0,,,,0.14,0.15,right,0.47,0.75,-0.2,-0.2,0.2,0.2,35,8,1.0,,,,,right,1,0.5271861249930225,None,,,,,,,,,,,,,0,21,21,15,,,,,27.01957720797509,,,,,,,,,,,,,,,,,,,,,,,,,,,,,,,,,,,,,,,,,,,,,,,,,,,,27.01086379197659,27.01957720797509,27.550872791965958,right,1,0.5271861249930225,None,27.55298308294732,27.848135499982163,10,0.3925895218853839,0.32606820331590386,,,,,,,,,,,,,,,,,,,,,,,,,g,,,2025-12-30_17h39.22.720,4_calibr_sum,,2025.1.1,None,2025-12-30 17h39.35.683915 +0400,
,22,22,0,,,,0.17,0.18,right,0.5,0.2,-0.2,-0.22,0.2,0.18,7,45,0.5,,,,,right,1,0.4549342920072377,None,,,,,,,,,,,,,0,22,22,2,,,,,27.858794749947265,,,,,,,,,,,,,,,,,,,,,,,,,,,,,,,,,,,,,,,,,,,,,,,,,,,,27.849181457946543,27.858794749947265,28.320258249994367,right,1,0.4549342920072377,None,28.320366916945204,28.618732832954265,11,0.39570676039147656,0.3181023041336733,,,,,,,,,,,,,,,,,,,,,,,,,g,,,2025-12-30_17h39.22.720,4_calibr_sum,,2025.1.1,None,2025-12-30 17h39.35.683915 +0400,
,23,23,0,,,,0.18,0.19,left,0.4,0.19,-0.3,0.2,0.3,-0.2,45,5,1.5,,,,,right,0,0.37425354099832475,None,,,,,,,,,,,,,0,23,23,31,,,,,28.62819637497887,,,,,,,,,,,,,,,,,,,,,,,,,,,,,,,,,,,,,,,,,,,,,,,,,,,,28.61986833298579,28.62819637497887,29.009561499988195,right,0,0.37425354099832475,None,29.01251254195813,29.308991291967686,11,0.3946851785156122,0.31046967816866633,,,,,,,,,,,,,,,,,,,,,,,,,g,,,2025-12-30_17h39.22.720,4_calibr_sum,,2025.1.1,None,2025-12-30 17h39.35.683915 +0400,
,24,24,0,,,,0.24,0.23,left,0.7,0.16,-0.18,0.2,0.18,-0.2,6,47,1.5,,,,,right,0,0.7642358749872074,None,,,,,,,,,,,,,0,24,24,35,,,,,29.31864820799092,,,,,,,,,,,,,,,,,,,,,,,,,,,,,,,,,,,,,,,,,,,,,,,,,,,,29.309782916971017,29.31864820799092,30.085720207949635,right,0,0.7642358749872074,None,30.08580862497911,30.383553291962016,11,0.41148293744613923,0.3129464037801159,,,,,,,,,,,,,,,,,,,,,,,,,g,,,2025-12-30_17h39.22.720,4_calibr_sum,,2025.1.1,None,2025-12-30 17h39.35.683915 +0400,
,25,25,0,,,,0.28,0.27,left,0.13,0.85,-0.18,-0.22,0.18,0.18,5,45,1.5,,,,,right,0,0.3671443330240436,None,,,,,,,,,,,,,0,25,25,24,,,,,30.408447916968726,,,,,,,,,,,,,,,,,,,,,,,,,,,,,,,,,,,,,,,,,,,,,,,,,,,,30.384359332965687,30.408447916968726,30.77888995799003,right,0,0.3671443330240436,None,30.779052749974653,31.078308249998372,11,0.4095551720364829,0.3062011539374321,,,,,,,,,,,,,,,,,,,,,,,,,g,,,2025-12-30_17h39.22.720,4_calibr_sum,,2025.1.1,None,2025-12-30 17h39.35.683915 +0400,
,26,26,0,,,,0.27,0.26,left,0.52,0.2,-0.18,0.15,0.18,-0.18,20,4,1.5,,,,,left,1,1.0498232500394806,None,,,,,,,,,,,,,0,26,26,38,,,,,31.091673999966588,,,,,,,,,,,,,,,,,,,,,,,,,,,,,,,,,,,,,,,,,,,,,,,,,,,,31.079600832948927,31.091673999966588,32.14339779195143,left,1,1.0498232500394806,None,32.145472957985476,32.45834633294726,12,0.43623300861994113,0.32591682336303407,,,,,,,,,,,,,,,,,,,,,,,,,g,,,2025-12-30_17h39.22.720,4_calibr_sum,,2025.1.1,None,2025-12-30 17h39.35.683915 +0400,
,27,27,0,,,,0.16,0.17,right,0.49,0.78,-0.2,0.15,0.2,-0.18,30,5,0.7,,,,,right,1,0.4031772919697687,None,,,,,,,,,,,,,0,27,27,7,,,,,32.47533533297246,,,,,,,,,,,,,,,,,,,,,,,,,,,,,,,,,,,,,,,,,,,,,,,,,,,,32.459578249952756,32.47533533297246,32.88208254199708,right,1,0.4031772919697687,None,32.882211666961666,33.175600874994416,13,0.43491077995393423,0.319397657550105,,,,,,,,,,,,,,,,,,,,,,,,,g,,,2025-12-30_17h39.22.720,4_calibr_sum,,2025.1.1,None,2025-12-30 17h39.35.683915 +0400,
,28,28,0,,,,0.14,0.13,left,0.15,0.5,-0.3,0.21,0.3,0.18,45,5,0.5,,,,,None,0,,,,,,,,,,,,,,,0,28,28,0,,,,,33.185134332976304,,,,,,,,,,,,,,,,,,,,,,,,,,,,,,,,,,,,,,,,,,,,,,,,,,,,33.176920041965786,33.185134332976304,33.67729241697816,None,0,,,33.68043133296305,33.974590457975864,13,0.43491077995393423,0.319397657550105,33.68725833296776,,,,,,,,,,,,,,,,,,,,,,,,g,,,2025-12-30_17h39.22.720,4_calibr_sum,,2025.1.1,None,2025-12-30 17h39.35.683915 +0400,
,29,29,0,,,,0.26,0.27,right,0.15,0.5,-0.3,-0.2,0.3,0.2,5,45,1.0,,,,,right,1,0.3727172919898294,None,,,,,,,,,,,,,0,29,29,10,,,,,33.98536145797698,,,,,,,,,,,,,,,,,,,,,,,,,,,,,,,,,,,,,,,,,,,,,,,,,,,,33.97532945795683,33.98536145797698,34.3595324169728,right,1,0.3727172919898294,None,34.36146629200084,34.6598877919605,14,0.4325187227245456,0.31342345714918296,,,,,,,,,,,,,,,,,,,,,,,,,g,,,2025-12-30_17h39.22.720,4_calibr_sum,,2025.1.1,None,2025-12-30 17h39.35.683915 +0400,
,30,30,0,,,,0.19,0.2,left,0.5,0.2,-0.3,-0.2,0.3,0.2,30,15,1.5,,,,,left,1,0.7778248750255443,None,,,,,,,,,,,,,0,30,30,32,,,,,34.676193582999986,,,,,,,,,,,,,,,,,,,,,,,,,,,,,,,,,,,,,,,,,,,,,,,,,,,,34.66058520798106,34.676193582999986,35.45921391696902,left,1,0.7778248750255443,None,35.45929816697026,35.758393207972404,15,0.44530783947643443,0.31440190302499804,,,,,,,,,,,,,,,,,,,,,,,,,g,,,2025-12-30_17h39.22.720,4_calibr_sum,,2025.1.1,None,2025-12-30 17h39.35.683915 +0400,
,31,31,0,,,,0.13,0.14,right,0.46,0.25,-0.2,0.2,0.2,-0.2,10,25,1.0,,,,,left,0,0.4562219579820521,None,,,,,,,,,,,,,0,31,31,13,,,,,35.768836416944396,,,,,,,,,,,,,,,,,,,,,,,,,,,,,,,,,,,,,,,,,,,,,,,,,,,,35.759568957961164,35.768836416944396,36.244062624988146,left,0,0.4562219579820521,None,36.24646016699262,36.54243783297716,15,0.4456976294230636,0.30874318342180623,,,,,,,,,,,,,,,,,,,,,,,,,g,,,2025-12-30_17h39.22.720,4_calibr_sum,,2025.1.1,None,2025-12-30 17h39.35.683915 +0400,
,32,32,0,,,,0.14,0.13,left,0.15,0.5,-0.3,0.21,0.3,0.18,45,5,0.7,,,,,right,0,0.42142449994571507,None,,,,,,,,,,,,,0,32,32,8,,,,,36.5528180829715,,,,,,,,,,,,,,,,,,,,,,,,,,,,,,,,,,,,,,,,,,,,,,,,,,,,36.54363858298166,36.5528180829715,36.97809441696154,right,0,0.42142449994571507,None,36.978183916944545,37.275655874982476,15,0.4448606249583275,0.30340565543571796,,,,,,,,,,,,,,,,,,,,,,,,,g,,,2025-12-30_17h39.22.720,4_calibr_sum,,2025.1.1,None,2025-12-30 17h39.35.683915 +0400,
,33,33,0,,,,0.19,0.2,right,0.52,0.2,-0.2,0.2,0.2,-0.2,36,10,1.5,,,,,left,0,0.36557650001486763,None,,,,,,,,,,,,,0,33,33,34,,,,,37.29222566698445,,,,,,,,,,,,,,,,,,,,,,,,,,,,,,,,,,,,,,,,,,,,,,,,,,,,37.276970082952175,37.29222566698445,37.664645416953135,left,0,0.36557650001486763,None,37.66477612499148,37.958797207975294,15,0.4422178207935455,0.2986453415459771,,,,,,,,,,,,,,,,,,,,,,,,,g,,,2025-12-30_17h39.22.720,4_calibr_sum,,2025.1.1,None,2025-12-30 17h39.35.683915 +0400,
,34,34,0,,,,0.24,0.25,right,0.13,0.85,-0.3,-0.2,0.3,0.2,0,45,1.5,,,,,right,1,0.31778383400524035,None,,,,,,,,,,,,,0,34,34,25,,,,,37.969406291958876,,,,,,,,,,,,,,,,,,,,,,,,,,,,,,,,,,,,,,,,,,,,,,,,,,,,37.960138124995865,37.969406291958876,38.29296541697113,right,1,0.31778383400524035,None,38.29504154197639,38.59271433297545,16,0.4382038212197292,0.2946104886068128,,,,,,,,,,,,,,,,,,,,,,,,,g,,,2025-12-30_17h39.22.720,4_calibr_sum,,2025.1.1,None,2025-12-30 17h39.35.683915 +0400,
,35,35,0,,,,0.15,0.16,right,0.48,0.15,-0.2,0.21,0.2,0.18,9,25,1.0,,,,,left,0,0.38854149996768683,None,,,,,,,,,,,,,0,35,35,16,,,,,38.602710957988165,,,,,,,,,,,,,,,,,,,,,,,,,,,,,,,,,,,,,,,,,,,,,,,,,,,,38.59399891697103,38.602710957988165,38.994065499980934,left,0,0.38854149996768683,None,38.995791416964494,39.292435749957804,16,0.4366518736806029,0.29009938021016934,,,,,,,,,,,,,,,,,,,,,,,,,g,,,2025-12-30_17h39.22.720,4_calibr_sum,,2025.1.1,None,2025-12-30 17h39.35.683915 +0400,
,36,36,0,,,,0.15,0.14,left,0.8,0.16,-0.3,0.15,0.3,-0.18,30,15,0.5,,,,,None,0,,,,,,,,,,,,,,,0,36,36,1,,,,,39.302246291947085,,,,,,,,,,,,,,,,,,,,,,,,,,,,,,,,,,,,,,,,,,,,,,,,,,,,39.293581749952864,39.302246291947085,39.79323191696312,None,0,,,39.79665966698667,40.0906984579633,16,0.4366518736806029,0.29009938021016934,39.80407354194904,,,,,,,,,,,,,,,,,,,,,,,,g,,,2025-12-30_17h39.22.720,4_calibr_sum,,2025.1.1,None,2025-12-30 17h39.35.683915 +0400,
,37,37,0,,,,0.21,0.2,left,0.16,0.7,-0.18,0.15,0.18,-0.18,5,45,1.0,,,,,right,0,0.4133424590108916,None,,,,,,,,,,,,,0,37,37,18,,,,,40.10069054196356,,,,,,,,,,,,,,,,,,,,,,,,,,,,,,,,,,,,,,,,,,,,,,,,,,,,40.09144141699653,40.10069054196356,40.51993245794438,right,0,0.4133424590108916,None,40.521805416967254,40.81772024999373,16,0.43594552778152074,0.2856980646644372,,,,,,,,,,,,,,,,,,,,,,,,,g,,,2025-12-30_17h39.22.720,4_calibr_sum,,2025.1.1,None,2025-12-30 17h39.35.683915 +0400,
,38,38,0,,,,0.16,0.17,right,0.49,0.78,-0.2,0.15,0.2,-0.18,30,5,1.0,,,,,right,1,0.5463701249682344,None,,,,,,,,,,,,,0,38,38,17,,,,,40.82756662496831,,,,,,,,,,,,,,,,,,,,,,,,,,,,,,,,,,,,,,,,,,,,,,,,,,,,40.81850466696778,40.82756662496831,41.37655624997569,right,1,0.5463701249682344,None,41.378421791945584,41.6758221249911,17,0.4391933100517182,0.28208293699382286,,,,,,,,,,,,,,,,,,,,,,,,,g,,,2025-12-30_17h39.22.720,4_calibr_sum,,2025.1.1,None,2025-12-30 17h39.35.683915 +0400,
,39,39,0,,,,0.18,0.17,left,0.4,0.19,-0.3,0.2,0.3,-0.2,45,5,0.7,,,,,left,1,0.41092820797348395,None,,,,,,,,,,,,,0,39,39,6,,,,,41.685857166943606,,,,,,,,,,,,,,,,,,,,,,,,,,,,,,,,,,,,,,,,,,,,,,,,,,,,41.67707962496206,41.685857166943606,42.10380374995293,left,1,0.41092820797348395,None,42.10388699994655,42.4085240829736,18,0.43838573570662576,0.2780638530722379,,,,,,,,,,,,,,,,,,,,,,,,,g,,,2025-12-30_17h39.22.720,4_calibr_sum,,2025.1.1,None,2025-12-30 17h39.35.683915 +0400,
,0,0,0,,,,,,,,,,,,,,,,,,,,,,,,Это было сложно?,5.2168021680216805,1.8744762500282377,"[(np.float64(5.2168021680216805), 1.8744762500282377)]",,,,,,,,,,,,,0,0,0,0,42.43825704196934,,,,,,,,,,,,,,,,,,,,,,,,,,,,,,,,,,,,,,,,,,,,,,,,,,,,,,,,,,,,,,,,,42.42391866695834,42.43825704196934,42.43825704196934,44.29921062494395,5.2168021680216805,1.8744762500282377,"[(np.float64(5.2168021680216805), 1.8744762500282377)]",,,,,,,,,,,,,,,,,g,,,2025-12-30_17h39.22.720,4_calibr_sum,,2025.1.1,None,2025-12-30 17h39.35.683915 +0400,
,1,1,0,,,,,,,,,,,,,,,,,,,,,,,,Вы могли контролировать ситуацию?,5.209575429087624,0.14138045895379037,"[(np.float64(5.209575429087624), 0.14138045895379037)]",,,,,,,,,,,,,0,1,1,1,44.31006387498928,,,,,,,,,,,,,,,,,,,,,,,,,,,,,,,,,,,,,,,,,,,,,,,,,,,,,,,,,,,,,,,,,44.30262245796621,44.31006387498928,44.31006387498928,44.448627416975796,5.209575429087624,0.14138045895379037,"[(np.float64(5.209575429087624), 0.14138045895379037)]",,,,,,,,,,,,,,,,,g,,,2025-12-30_17h39.22.720,4_calibr_sum,,2025.1.1,None,2025-12-30 17h39.35.683915 +0400,
,2,2,0,,,,,,,,,,,,,,,,,,,,,,,,Насколько результат зависел от Вас?,5.202348690153568,0.11572012497344986,"[(np.float64(5.202348690153568), 0.11572012497344986)]",,,,,,,,,,,,,0,2,2,2,44.45973983296426,,,,,,,,,,,,,,,,,,,,,,,,,,,,,,,,,,,,,,,,,,,,,,,,,,,,,,,,,,,,,,,,,44.45181033294648,44.45973983296426,44.45973983296426,44.57293149997713,5.202348690153568,0.11572012497344986,"[(np.float64(5.202348690153568), 0.11572012497344986)]",,,,,,,,,,,,,,,,,g,,,2025-12-30_17h39.22.720,4_calibr_sum,,2025.1.1,None,2025-12-30 17h39.35.683915 +0400,
,3,3,0,,,,,,,,,,,,,,,,,,,,,,,,Насколько успешно получалось сравнивать квадраты?,5.14453477868112,0.3051879580016248,"[(np.float64(5.14453477868112), 0.3051879580016248)]",,,,,,,,,,,,,0,3,3,3,44.582203582976945,,,,,,,,,,,,,,,,,,,,,,,,,,,,,,,,,,,,,,,,,,,,,,,,,,,,,,,,,,,,,,,,,44.57557458296651,44.582203582976945,44.582203582976945,44.89182912494289,5.14453477868112,0.3051879580016248,"[(np.float64(5.14453477868112), 0.3051879580016248)]",,,,,,,,,,,,,,,,,g,,,2025-12-30_17h39.22.720,4_calibr_sum,,2025.1.1,None,2025-12-30 17h39.35.683915 +0400,
,4,4,0,,,,,,,,,,,,,,,,,,,,,,,,Вы довольны результатом?,5.14453477868112,0.15512516599847004,"[(np.float64(5.14453477868112), 0.15512516599847004)]",,,,,,,,,,,,,0,4,4,4,44.90259541699197,,,,,,,,,,,,,,,,,,,,,,,,,,,,,,,,,,,,,,,,,,,,,,,,,,,,,,,,,,,,,,,,,44.89416224998422,44.90259541699197,44.90259541699197,45.05731870798627,5.14453477868112,0.15512516599847004,"[(np.float64(5.14453477868112), 0.15512516599847004)]",,,,,,,,,,,,,,,,,g,,,2025-12-30_17h39.22.720,4_calibr_sum,,2025.1.1,None,2025-12-30 17h39.35.683915 +0400,
,,,,,,,,,,,,,,,,,,,,,,,,,,,,,,,,,,,,,,,,,,,,,,,,,,,,,,,,,,,,,,,,,,,,,,,,,,,,,,,,,,,,,,,,,,,,,,,,,,,,,,,,,,,,,,,,,,,,,,,45.06008274998749,45.064925124985166,45.064925124985166,46.357945832947735,None,,,,,,,,,,,,g,,,2025-12-30_17h39.22.720,4_calibr_sum,,2025.1.1,None,2025-12-30 17h39.35.683915 +0400,
,,,,,,,,,,,,,,,,,,,,,,,,,,,,,,,,,,,,,,,,,,,,,,,,,,,,,,,,,,,,,,,,,,,,,,,,,,,,,,,,,,,,,,,,,,,,,,,,,,,,,,,,,,,,,,,,,,,,,,,,,,,,46.35953337495448,46.36940120795043,53.53228612494422,space,7.159890374983661,None,"Введите номер строки для получения баллов. Нажмите "пробел", чтобы завершить.

6666",,,,,g,,,2025-12-30_17h39.22.720,4_calibr_sum,,2025.1.1,None,2025-12-30 17h39.35.683915 +0400,
,,,,,,,,,,,,,,,,,,,,,,,,,,,,,,,,,,,,,,,,,,,,,,,,,,,,,,,,,,,,,,,,,,,,,,,,,,,,,,,,,,,,,,,,,,,,,,,,,,,,,,,,,,,,,,,,,,,,,,,,,,,,,,,,,,,53.53233791695675,53.543262249964755,54.54162454197649,54.53182666696375,g,,,2025-12-30_17h39.22.720,4_calibr_sum,,2025.1.1,None,2025-12-30 17h39.35.683915 +0400,
