Main_instr.started,Main_instr.stopped,main_instr_key.keys,main_instr_key.rt,main_instr_key.duration,name ,gender ,ag,date,expName,psychopyVersion,OS,frameRate,instr_BJW.started,instr_BJW.stopped,BJW_key_resp.keys,BJW_key_resp.rt,BJW_key_resp.duration,BJW.started,BJW.stopped,BJW_slider.response,BJW_slider.rt,BJW_slider.history,BJW_trials.thisRepN,BJW_trials.thisTrialN,BJW_trials.thisN,BJW_trials.thisIndex,BJW_trials.ran,Text,instr.started,instr.stopped,resp_instr.keys,resp_instr.rt,resp_instr.duration,instr_2.started,instr_2.stopped,key_resp.keys,key_resp.rt,key_resp.duration,tren.started,tren.stopped,resp_tren.keys,resp_tren.corr,resp_tren.rt,resp_tren.duration,fb_tren.started,fb_tren.stopped,trials.thisRepN,trials.thisTrialN,trials.thisN,trials.thisIndex,trials.ran,w1,w2,corr_answ,op1,op2,xPos1,yPos1,xPos2,yPos2,or1,or2,time,instr3.started,instr3.stopped,reesp_instr.keys,reesp_instr.rt,reesp_instr.duration,task_L.started,task_L.stopped,resp.keys,resp.corr,resp.rt,resp.duration,fb_task.started,fb_task.stopped,corr_sum,mean_rt,sd_rt,loop_L.thisRepN,loop_L.thisTrialN,loop_L.thisN,loop_L.thisIndex,loop_L.ran,slider.started,slider.stopped,sl_h.response,sl_h.rt,sl_h.history,l_slid.thisRepN,l_slid.thisTrialN,l_slid.thisN,l_slid.thisIndex,l_slid.ran,q_sl,fin_sum.started,fin_sum.stopped,key_resp_2.keys,Get_points.started,Get_points.stopped,textbox.text,thanks.started,thanks.stopped
0.0002,1.3119,space,1.2929,,test_osf_4?,0,0,2026-04-08_00h46.05.382,4_calibr_sum,2025.1.1,MacIntel,60.97560976,,,,,,,,,,,,,,,,,,,,,,,,,,,,,,,,,,,,,,,,,,,,,,,,,,,,,,,,,,,,,,,,,,,,,,,,,,,,,,,,,,,,,,,,,,,
,,,,,test_osf_4?,0,0,2026-04-08_00h46.05.382,4_calibr_sum,2025.1.1,MacIntel,60.97560976,1.3119,1.6952,space,0.3706,,,,,,,,,,,,,,,,,,,,,,,,,,,,,,,,,,,,,,,,,,,,,,,,,,,,,,,,,,,,,,,,,,,,,,,,,,,,,,,,,,,,,,,
,,,,,test_osf_4?,0,0,2026-04-08_00h46.05.382,4_calibr_sum,2025.1.1,MacIntel,60.97560976,,,,,,1.7148,2.4949,3,0.778,"[{""rating"":3,""responseTime"":0.7780000000000005}]",0,0,0,0,1,"Я считаю, что, по большому счету, заслуживаю того, что происходит со мной.",,,,,,,,,,,,,,,,,,,,,,,,,,,,,,,,,,,,,,,,,,,,,,,,,,,,,,,,,,,,,,,,,,,,,,,,,,,
,,,,,test_osf_4?,0,0,2026-04-08_00h46.05.382,4_calibr_sum,2025.1.1,MacIntel,60.97560976,,,,,,2.4965,2.6452,3,0.1469,"[{""rating"":3,""responseTime"":0.14690000000037173}]",0,1,1,1,1,"Как правило, жизнь ко мне справедлива.",,,,,,,,,,,,,,,,,,,,,,,,,,,,,,,,,,,,,,,,,,,,,,,,,,,,,,,,,,,,,,,,,,,,,,,,,,,
,,,,,test_osf_4?,0,0,2026-04-08_00h46.05.382,4_calibr_sum,2025.1.1,MacIntel,60.97560976,,,,,,2.6465,2.8121,3,0.1571,"[{""rating"":3,""responseTime"":0.15710000000149016}]",0,2,2,2,1,"Я верю, что обычно получаю то, что заслуживаю.",,,,,,,,,,,,,,,,,,,,,,,,,,,,,,,,,,,,,,,,,,,,,,,,,,,,,,,,,,,,,,,,,,,,,,,,,,,
,,,,,test_osf_4?,0,0,2026-04-08_00h46.05.382,4_calibr_sum,2025.1.1,MacIntel,60.97560976,,,,,,2.8136,2.9445,3,0.1238,"[{""rating"":3,""responseTime"":0.12380000000074531}]",0,3,3,3,1,В моей жизни в общем и целом всё происходит справедливо.,,,,,,,,,,,,,,,,,,,,,,,,,,,,,,,,,,,,,,,,,,,,,,,,,,,,,,,,,,,,,,,,,,,,,,,,,,,
,,,,,test_osf_4?,0,0,2026-04-08_00h46.05.382,4_calibr_sum,2025.1.1,MacIntel,60.97560976,,,,,,2.9457,3.0954,3,0.1413,"[{""rating"":3,""responseTime"":0.14130000000074538}]",0,4,4,4,1,"В моей жизни несправедливость – скорее исключение, чем правило.",,,,,,,,,,,,,,,,,,,,,,,,,,,,,,,,,,,,,,,,,,,,,,,,,,,,,,,,,,,,,,,,,,,,,,,,,,,
,,,,,test_osf_4?,0,0,2026-04-08_00h46.05.382,4_calibr_sum,2025.1.1,MacIntel,60.97560976,,,,,,3.0967,3.2284,3,0.125,"[{""rating"":3,""responseTime"":0.125}]",0,5,5,5,1,"Я считаю, что в целом в моей жизни всё справедливо.",,,,,,,,,,,,,,,,,,,,,,,,,,,,,,,,,,,,,,,,,,,,,,,,,,,,,,,,,,,,,,,,,,,,,,,,,,,
,,,,,test_osf_4?,0,0,2026-04-08_00h46.05.382,4_calibr_sum,2025.1.1,MacIntel,60.97560976,,,,,,3.23,3.3782,3,0.1478,"[{""rating"":3,""responseTime"":0.14780000000074622}]",0,6,6,6,1,"Я думаю, что важные решения, которые касаются меня, обычно справедливы.",,,,,,,,,,,,,,,,,,,,,,,,,,,,,,,,,,,,,,,,,,,,,,,,,,,,,,,,,,,,,,,,,,,,,,,,,,,
,,,,,test_osf_4?,0,0,2026-04-08_00h46.05.382,4_calibr_sum,2025.1.1,MacIntel,60.97560976,,,,,,3.3794,3.5449,3,0.1639,"[{""rating"":3,""responseTime"":0.16390000000037297}]",0,7,7,7,1,"Я считаю, что в целом мир справедлив.",,,,,,,,,,,,,,,,,,,,,,,,,,,,,,,,,,,,,,,,,,,,,,,,,,,,,,,,,,,,,,,,,,,,,,,,,,,
,,,,,test_osf_4?,0,0,2026-04-08_00h46.05.382,4_calibr_sum,2025.1.1,MacIntel,60.97560976,,,,,,3.546,3.6954,3,0.1407,"[{""rating"":3,""responseTime"":0.14070000000111627}]",0,8,8,8,1,"Я считаю, что, по большому счету, люди получают то, что заслуживают.",,,,,,,,,,,,,,,,,,,,,,,,,,,,,,,,,,,,,,,,,,,,,,,,,,,,,,,,,,,,,,,,,,,,,,,,,,,
,,,,,test_osf_4?,0,0,2026-04-08_00h46.05.382,4_calibr_sum,2025.1.1,MacIntel,60.97560976,,,,,,3.6967,3.845,3,0.1463,"[{""rating"":3,""responseTime"":0.146299999998881}]",0,9,9,9,1,"Я уверен, что справедливость всегда побеждает несправедливость.",,,,,,,,,,,,,,,,,,,,,,,,,,,,,,,,,,,,,,,,,,,,,,,,,,,,,,,,,,,,,,,,,,,,,,,,,,,
,,,,,test_osf_4?,0,0,2026-04-08_00h46.05.382,4_calibr_sum,2025.1.1,MacIntel,60.97560976,,,,,,3.8461,4.0286,3,0.1746,"[{""rating"":3,""responseTime"":0.1745999999996286}]",0,10,10,10,1,"Я убежден, что, если человек пережил несправедливость, в будущем это возместится.",,,,,,,,,,,,,,,,,,,,,,,,,,,,,,,,,,,,,,,,,,,,,,,,,,,,,,,,,,,,,,,,,,,,,,,,,,,
,,,,,test_osf_4?,0,0,2026-04-08_00h46.05.382,4_calibr_sum,2025.1.1,MacIntel,60.97560976,,,,,,4.0301,4.1954,3,0.1577,"[{""rating"":3,""responseTime"":0.1577000000011175}]",0,11,11,11,1,"Я твердо уверен, что несправедливость в самых разных жизненных ситуациях (в семье, учебе и т. д.) – скорее исключение, чем правило.",,,,,,,,,,,,,,,,,,,,,,,,,,,,,,,,,,,,,,,,,,,,,,,,,,,,,,,,,,,,,,,,,,,,,,,,,,,
,,,,,test_osf_4?,0,0,2026-04-08_00h46.05.382,4_calibr_sum,2025.1.1,MacIntel,60.97560976,,,,,,4.1966,4.3619,3,0.1569,"[{""rating"":3,""responseTime"":0.1568999999985099}]",0,12,12,12,1,"Я думаю, что все, кто принимает важные решения, стремятся быть справедливыми.",,,,,,,,,,,,,,,,,,,,,,,,,,,,,,,,,,,,,,,,,,,,,,,,,,,,,,,,,,,,,,,,,,,,,,,,,,,
,,,,,test_osf_4?,0,0,2026-04-08_00h46.05.382,4_calibr_sum,2025.1.1,MacIntel,60.97560976,,,,,,,,,,,,,,,,,4.3624,5.3126,space,0.9372,,,,,,,,,,,,,,,,,,,,,,,,,,,,,,,,,,,,,,,,,,,,,,,,,,,,,,,,,,,,,,,,,,,,,,,
,,,,,test_osf_4?,0,0,2026-04-08_00h46.05.382,4_calibr_sum,2025.1.1,MacIntel,60.97560976,,,,,,,,,,,,,,,,,,,,,,5.3128,5.779,space,0.4412,,,,,,,,,,,,,,,,,,,,,,,,,,,,,,,,,,,,,,,,,,,,,,,,,,,,,,,,,,,,,,,,,,
,,,,,test_osf_4?,0,0,2026-04-08_00h46.05.382,4_calibr_sum,2025.1.1,MacIntel,60.97560976,,,,,,,,,,,,,,,,,,,,,,,,,,,5.7891,6.6621,right,0,0.862,,6.6623,7.1623,0,0,0,0,1,0.22,0.21,left,0.17,0.8,-0.18,-0.22,0.18,0.18,45,5,1,,,,,,,,,,,,,,,,,,,,,,,,,,,,,,,,,,,,,,,,
,,,,,test_osf_4?,0,0,2026-04-08_00h46.05.382,4_calibr_sum,2025.1.1,MacIntel,60.97560976,,,,,,,,,,,,,,,,,,,,,,,,,,,7.1634,7.229,left,1,0.0533,,7.2297,7.7287,0,1,1,2,1,0.17,0.16,left,0.3,0.18,-0.3,-0.2,0.3,0.2,5,45,1,,,,,,,,,,,,,,,,,,,,,,,,,,,,,,,,,,,,,,,,
,,,,,test_osf_4?,0,0,2026-04-08_00h46.05.382,4_calibr_sum,2025.1.1,MacIntel,60.97560976,,,,,,,,,,,,,,,,,,,,,,,,,,,7.7294,7.8289,right,1,0.0891,,7.8289,8.3287,0,2,2,6,1,0.24,0.25,right,0.13,0.85,-0.3,-0.2,0.3,0.2,0,45,1.5,,,,,,,,,,,,,,,,,,,,,,,,,,,,,,,,,,,,,,,,
,,,,,test_osf_4?,0,0,2026-04-08_00h46.05.382,4_calibr_sum,2025.1.1,MacIntel,60.97560976,,,,,,,,,,,,,,,,,,,,,,,,,,,8.3296,8.3622,left,0,0.0216,,8.3628,8.8621,0,3,3,3,1,0.21,0.22,right,0.54,0.22,-0.2,0.21,0.2,0.18,37,7,1.5,,,,,,,,,,,,,,,,,,,,,,,,,,,,,,,,,,,,,,,,
,,,,,test_osf_4?,0,0,2026-04-08_00h46.05.382,4_calibr_sum,2025.1.1,MacIntel,60.97560976,,,,,,,,,,,,,,,,,,,,,,,,,,,8.8628,9.1956,right,0,0.3215,,9.1958,9.6954,0,4,4,5,1,0.28,0.27,left,0.13,0.85,-0.18,-0.22,0.18,0.18,5,45,1.5,,,,,,,,,,,,,,,,,,,,,,,,,,,,,,,,,,,,,,,,
,,,,,test_osf_4?,0,0,2026-04-08_00h46.05.382,4_calibr_sum,2025.1.1,MacIntel,60.97560976,,,,,,,,,,,,,,,,,,,,,,,,,,,9.6962,10.0455,left,1,0.3472,,10.0461,10.5449,0,5,5,1,1,0.16,0.15,left,0.17,0.7,-0.3,-0.22,0.3,0.18,6,47,1,,,,,,,,,,,,,,,,,,,,,,,,,,,,,,,,,,,,,,,,
,,,,,test_osf_4?,0,0,2026-04-08_00h46.05.382,4_calibr_sum,2025.1.1,MacIntel,60.97560976,,,,,,,,,,,,,,,,,,,,,,,,,,,10.5455,10.5954,right,1,0.0469,,10.5955,11.0953,0,6,6,4,1,0.22,0.23,right,0.15,0.5,-0.2,0.15,0.2,-0.18,45,3,1.5,,,,,,,,,,,,,,,,,,,,,,,,,,,,,,,,,,,,,,,,
,,,,,test_osf_4?,0,0,2026-04-08_00h46.05.382,4_calibr_sum,2025.1.1,MacIntel,60.97560976,,,,,,,,,,,,,,,,,,,,,,,,,,,,,,,,,,,,,,,,,,,,,,,,,,,,11.0956,11.9792,space,0.8714,,,,,,,,,,,,,,,,,,,,,,,,,,,,,,,,,,,,
,,,,,test_osf_4?,0,0,2026-04-08_00h46.05.382,4_calibr_sum,2025.1.1,MacIntel,60.97560976,,,,,,,,,,,,,,,,,,,,,,,,,,,,,,,,,,,,,,,,0.14,0.13,left,0.15,0.5,-0.3,0.21,0.3,0.18,45,5,2,,,,,,11.9922,12.3793,right,0,0.3675,,12.3796,12.679,0,0.3675,0,0,0,0,0,1,,,,,,,,,,,,,,,,,,,
,,,,,test_osf_4?,0,0,2026-04-08_00h46.05.382,4_calibr_sum,2025.1.1,MacIntel,60.97560976,,,,,,,,,,,,,,,,,,,,,,,,,,,,,,,,,,,,,,,,0.15,0.14,left,0.8,0.16,-0.3,0.15,0.3,-0.18,30,15,1.5,,,,,,12.6798,12.8614,left,1,0.1658,,12.8622,13.1617,1,0.26665,0.10085,0,1,1,1,1,,,,,,,,,,,,,,,,,,,
,,,,,test_osf_4?,0,0,2026-04-08_00h46.05.382,4_calibr_sum,2025.1.1,MacIntel,60.97560976,,,,,,,,,,,,,,,,,,,,,,,,,,,,,,,,,,,,,,,,0.17,0.18,right,0.50,0.20,-0.2,-0.22,0.2,0.18,7,45,1.5,,,,,,13.1624,13.3289,right,1,0.1519,,13.329,13.6288,2,0.2284,0.098522113,0,2,2,2,1,,,,,,,,,,,,,,,,,,,
,,,,,test_osf_4?,0,0,2026-04-08_00h46.05.382,4_calibr_sum,2025.1.1,MacIntel,60.97560976,,,,,,,,,,,,,,,,,,,,,,,,,,,,,,,,,,,,,,,,0.18,0.19,right,0.51,0.8,-0.2,-0.2,0.2,0.2,45,3,0.6,,,,,,13.6295,13.7957,left,0,0.149,,13.7966,14.0956,2,0.20855,0.091989252,0,3,3,3,1,,,,,,,,,,,,,,,,,,,
,,,,,test_osf_4?,0,0,2026-04-08_00h46.05.382,4_calibr_sum,2025.1.1,MacIntel,60.97560976,,,,,,,,,,,,,,,,,,,,,,,,,,,,,,,,,,,,,,,,0.14,0.15,right,0.47,0.75,-0.2,-0.2,0.2,0.2,35,8,1.5,,,,,,14.0963,14.2955,right,1,0.1821,,14.2962,14.5955,3,0.20326,0.082955135,0,4,4,4,1,,,,,,,,,,,,,,,,,,,
,,,,,test_osf_4?,0,0,2026-04-08_00h46.05.382,4_calibr_sum,2025.1.1,MacIntel,60.97560976,,,,,,,,,,,,,,,,,,,,,,,,,,,,,,,,,,,,,,,,0.15,0.16,right,0.48,0.15,-0.2,0.21,0.2,0.18,9,25,0.6,,,,,,14.5962,14.7622,left,0,0.1491,,14.763,15.0621,3,0.194233333,0.078371119,0,5,5,5,1,,,,,,,,,,,,,,,,,,,
,,,,,test_osf_4?,0,0,2026-04-08_00h46.05.382,4_calibr_sum,2025.1.1,MacIntel,60.97560976,,,,,,,,,,,,,,,,,,,,,,,,,,,,,,,,,,,,,,,,0.18,0.17,left,0.4,0.19,-0.3,0.2,0.3,-0.2,45,5,1,,,,,,15.0628,15.1789,right,0,0.0995,,15.1789,15.4788,3,0.1807,0.079771585,0,6,6,6,1,,,,,,,,,,,,,,,,,,,
,,,,,test_osf_4?,0,0,2026-04-08_00h46.05.382,4_calibr_sum,2025.1.1,MacIntel,60.97560976,,,,,,,,,,,,,,,,,,,,,,,,,,,,,,,,,,,,,,,,0.16,0.17,right,0.49,0.78,-0.2,0.15,0.2,-0.18,30,5,1,,,,,,15.4795,15.6288,left,0,0.1321,,15.6289,15.9278,3,0.174625,0.076330904,0,7,7,7,1,,,,,,,,,,,,,,,,,,,
,,,,,test_osf_4?,0,0,2026-04-08_00h46.05.382,4_calibr_sum,2025.1.1,MacIntel,60.97560976,,,,,,,,,,,,,,,,,,,,,,,,,,,,,,,,,,,,,,,,0.14,0.13,left,0.15,0.5,-0.3,0.21,0.3,0.18,45,5,1.5,,,,,,15.9285,16.0622,right,0,0.1171,,16.0623,16.3613,3,0.168233333,0.074201453,0,8,8,8,1,,,,,,,,,,,,,,,,,,,
,,,,,test_osf_4?,0,0,2026-04-08_00h46.05.382,4_calibr_sum,2025.1.1,MacIntel,60.97560976,,,,,,,,,,,,,,,,,,,,,,,,,,,,,,,,,,,,,,,,0.20,0.21,right,0.13,0.85,-0.2,-0.2,0.2,0.2,0,45,2.5,,,,,,16.3621,16.5122,left,0,0.1332,,16.5123,16.8121,3,0.16473,0.071173943,0,9,9,9,1,,,,,,,,,,,,,,,,,,,
,,,,,test_osf_4?,0,0,2026-04-08_00h46.05.382,4_calibr_sum,2025.1.1,MacIntel,60.97560976,,,,,,,,,,,,,,,,,,,,,,,,,,,,,,,,,,,,,,,,0.26,0.27,right,0.15,0.5,-0.3,-0.2,0.3,0.2,5,45,1,,,,,,16.8132,16.9291,right,1,0.0993,,16.9297,17.2288,4,0.158781818,0.070420294,0,10,10,10,1,,,,,,,,,,,,,,,,,,,
,,,,,test_osf_4?,0,0,2026-04-08_00h46.05.382,4_calibr_sum,2025.1.1,MacIntel,60.97560976,,,,,,,,,,,,,,,,,,,,,,,,,,,,,,,,,,,,,,,,0.15,0.14,left,0.8,0.16,-0.3,0.15,0.3,-0.18,30,15,1.5,,,,,,17.2295,17.3291,left,1,0.0824,,17.3291,17.6287,5,0.152416667,0.070650075,0,11,11,11,1,,,,,,,,,,,,,,,,,,,
,,,,,test_osf_4?,0,0,2026-04-08_00h46.05.382,4_calibr_sum,2025.1.1,MacIntel,60.97560976,,,,,,,,,,,,,,,,,,,,,,,,,,,,,,,,,,,,,,,,0.12,0.13,right,0.45,0.85,-0.2,0,0.2,0.2,5,10,1,,,,,,17.6293,17.7787,right,1,0.1407,,17.7788,18.0787,6,0.151515385,0.067950161,0,12,12,12,1,,,,,,,,,,,,,,,,,,,
,,,,,test_osf_4?,0,0,2026-04-08_00h46.05.382,4_calibr_sum,2025.1.1,MacIntel,60.97560976,,,,,,,,,,,,,,,,,,,,,,,,,,,,,,,,,,,,,,,,0.13,0.14,right,0.46,0.25,-0.2,0.2,0.2,-0.2,10,25,1.5,,,,,,18.0795,18.2622,left,0,0.1659,,18.263,18.5621,6,0.152542857,0.065583128,0,13,13,13,1,,,,,,,,,,,,,,,,,,,
,,,,,test_osf_4?,0,0,2026-04-08_00h46.05.382,4_calibr_sum,2025.1.1,MacIntel,60.97560976,,,,,,,,,,,,,,,,,,,,,,,,,,,,,,,,,,,,,,,,0.18,0.19,left,0.4,0.19,-0.3,0.2,0.3,-0.2,45,5,0.6,,,,,,18.5627,18.729,right,0,0.1493,,18.7291,19.0287,6,0.152326667,0.063364485,0,14,14,14,1,,,,,,,,,,,,,,,,,,,
,,,,,test_osf_4?,0,0,2026-04-08_00h46.05.382,4_calibr_sum,2025.1.1,MacIntel,60.97560976,,,,,,,,,,,,,,,,,,,,,,,,,,,,,,,,,,,,,,,,0.14,0.15,right,0.47,0.75,-0.2,-0.2,0.2,0.2,35,8,1.5,,,,,,19.0294,19.1621,left,0,0.1253,,19.1622,19.462,6,0.1506375,0.061700211,0,15,15,15,1,,,,,,,,,,,,,,,,,,,
,,,,,test_osf_4?,0,0,2026-04-08_00h46.05.382,4_calibr_sum,2025.1.1,MacIntel,60.97560976,,,,,,,,,,,,,,,,,,,,,,,,,,,,,,,,,,,,,,,,0.15,0.16,right,0.48,0.15,-0.2,0.21,0.2,0.18,9,25,1,,,,,,19.4627,19.5955,right,1,0.1154,,19.5961,19.8954,7,0.148564706,0.060429492,0,16,16,16,1,,,,,,,,,,,,,,,,,,,
,,,,,test_osf_4?,0,0,2026-04-08_00h46.05.382,4_calibr_sum,2025.1.1,MacIntel,60.97560976,,,,,,,,,,,,,,,,,,,,,,,,,,,,,,,,,,,,,,,,0.16,0.17,right,0.49,0.78,-0.2,0.15,0.2,-0.18,30,5,1.5,,,,,,19.896,20.029,left,0,0.1195,,20.0296,20.3287,7,0.14695,0.059103076,0,17,17,17,1,,,,,,,,,,,,,,,,,,,
,,,,,test_osf_4?,0,0,2026-04-08_00h46.05.382,4_calibr_sum,2025.1.1,MacIntel,60.97560976,,,,,,,,,,,,,,,,,,,,,,,,,,,,,,,,,,,,,,,,0.21,0.20,left,0.16,0.7,-0.18,0.15,0.18,-0.18,5,45,2.5,,,,,,20.3293,20.429,right,0,0.0836,,20.4292,20.7288,7,0.143615789,0.059240422,0,18,18,18,1,,,,,,,,,,,,,,,,,,,
,,,,,test_osf_4?,0,0,2026-04-08_00h46.05.382,4_calibr_sum,2025.1.1,MacIntel,60.97560976,,,,,,,,,,,,,,,,,,,,,,,,,,,,,,,,,,,,,,,,0.22,0.21,left,0.17,0.8,-0.18,-0.22,0.18,0.18,45,5,1,,,,,,20.7295,20.8623,left,1,0.1161,,20.863,21.162,8,0.14224,0.058051007,0,19,19,19,1,,,,,,,,,,,,,,,,,,,
,,,,,test_osf_4?,0,0,2026-04-08_00h46.05.382,4_calibr_sum,2025.1.1,MacIntel,60.97560976,,,,,,,,,,,,,,,,,,,,,,,,,,,,,,,,,,,,,,,,0.16,0.15,left,0.17,0.7,-0.3,-0.22,0.3,0.18,6,47,0.6,,,,,,21.1628,21.2956,right,0,0.1165,,21.2963,21.5954,8,0.141014286,0.056916558,0,20,20,20,1,,,,,,,,,,,,,,,,,,,
,,,,,test_osf_4?,0,0,2026-04-08_00h46.05.382,4_calibr_sum,2025.1.1,MacIntel,60.97560976,,,,,,,,,,,,,,,,,,,,,,,,,,,,,,,,,,,,,,,,0.17,0.16,left,0.3,0.18,-0.3,-0.2,0.3,0.2,5,45,2.5,,,,,,21.5962,21.779,left,1,0.1645,,21.7797,22.0788,9,0.142081818,0.055822728,0,21,21,21,1,,,,,,,,,,,,,,,,,,,
,,,,,test_osf_4?,0,0,2026-04-08_00h46.05.382,4_calibr_sum,2025.1.1,MacIntel,60.97560976,,,,,,,,,,,,,,,,,,,,,,,,,,,,,,,,,,,,,,,,0.21,0.22,right,0.54,0.22,-0.2,0.21,0.2,0.18,37,7,1.5,,,,,,22.0795,22.2289,right,1,0.1324,,22.229,22.5288,10,0.14166087,0.054631395,0,22,22,22,1,,,,,,,,,,,,,,,,,,,
,,,,,test_osf_4?,0,0,2026-04-08_00h46.05.382,4_calibr_sum,2025.1.1,MacIntel,60.97560976,,,,,,,,,,,,,,,,,,,,,,,,,,,,,,,,,,,,,,,,0.22,0.23,right,0.15,0.5,-0.2,0.15,0.2,-0.18,45,3,1,,,,,,22.5296,22.679,left,0,0.1318,,22.6798,22.9787,10,0.14125,0.053517419,0,23,23,23,1,,,,,,,,,,,,,,,,,,,
,,,,,test_osf_4?,0,0,2026-04-08_00h46.05.382,4_calibr_sum,2025.1.1,MacIntel,60.97560976,,,,,,,,,,,,,,,,,,,,,,,,,,,,,,,,,,,,,,,,0.28,0.27,left,0.13,0.85,-0.18,-0.22,0.18,0.18,5,45,1,,,,,,22.9794,23.1456,right,0,0.1499,,23.1457,23.4454,10,0.141596,0.052463538,0,24,24,24,1,,,,,,,,,,,,,,,,,,,
,,,,,test_osf_4?,0,0,2026-04-08_00h46.05.382,4_calibr_sum,2025.1.1,MacIntel,60.97560976,,,,,,,,,,,,,,,,,,,,,,,,,,,,,,,,,,,,,,,,0.24,0.25,right,0.13,0.85,-0.3,-0.2,0.3,0.2,0,45,1.5,,,,,,23.4461,23.5954,left,0,0.133,,23.5955,23.8946,10,0.141265385,0.051471284,0,25,25,25,1,,,,,,,,,,,,,,,,,,,
,,,,,test_osf_4?,0,0,2026-04-08_00h46.05.382,4_calibr_sum,2025.1.1,MacIntel,60.97560976,,,,,,,,,,,,,,,,,,,,,,,,,,,,,,,,,,,,,,,,0.25,0.26,right,0.54,0.22,-0.3,0.2,0.3,-0.2,37,7,2.5,,,,,,23.8954,23.9955,right,1,0.0833,,23.9962,24.2955,11,0.139118519,0.051681776,0,26,26,26,1,,,,,,,,,,,,,,,,,,,
,,,,,test_osf_4?,0,0,2026-04-08_00h46.05.382,4_calibr_sum,2025.1.1,MacIntel,60.97560976,,,,,,,,,,,,,,,,,,,,,,,,,,,,,,,,,,,,,,,,0.16,0.15,left,0.17,0.7,-0.3,-0.22,0.3,0.18,6,47,2.5,,,,,,24.2961,24.4455,left,1,0.1327,,24.4456,24.7454,12,0.138889286,0.050764473,0,27,27,27,1,,,,,,,,,,,,,,,,,,,
,,,,,test_osf_4?,0,0,2026-04-08_00h46.05.382,4_calibr_sum,2025.1.1,MacIntel,60.97560976,,,,,,,,,,,,,,,,,,,,,,,,,,,,,,,,,,,,,,,,0.12,0.13,right,0.45,0.85,-0.2,0,0.2,0.2,5,10,1,,,,,,24.7461,24.862,right,1,0.1075,,24.8621,25.1622,13,0.137806897,0.050209286,0,28,28,28,1,,,,,,,,,,,,,,,,,,,
,,,,,test_osf_4?,0,0,2026-04-08_00h46.05.382,4_calibr_sum,2025.1.1,MacIntel,60.97560976,,,,,,,,,,,,,,,,,,,,,,,,,,,,,,,,,,,,,,,,0.23,0.17,right,0.52,0.2,-0.3,-0.22,0.3,0.18,36,10,1,,,,,,25.163,25.3457,left,0,0.1674,,25.3463,25.6453,13,0.138793333,0.049650364,0,29,29,29,1,,,,,,,,,,,,,,,,,,,
,,,,,test_osf_4?,0,0,2026-04-08_00h46.05.382,4_calibr_sum,2025.1.1,MacIntel,60.97560976,,,,,,,,,,,,,,,,,,,,,,,,,,,,,,,,,,,,,,,,0.17,0.18,left,0.3,0.18,-0.3,-0.2,0.3,0.2,5,45,1.5,,,,,,25.6461,25.7788,right,0,0.1158,,25.7789,26.0787,13,0.138051613,0.04901165,0,30,30,30,1,,,,,,,,,,,,,,,,,,,
,,,,,test_osf_4?,0,0,2026-04-08_00h46.05.382,4_calibr_sum,2025.1.1,MacIntel,60.97560976,,,,,,,,,,,,,,,,,,,,,,,,,,,,,,,,,,,,,,,,0.13,0.14,right,0.46,0.25,-0.2,0.2,0.2,-0.2,10,25,0.6,,,,,,26.0795,26.1954,left,0,0.109,,26.1955,26.4949,13,0.13714375,0.048503872,0,31,31,31,1,,,,,,,,,,,,,,,,,,,
,,,,,test_osf_4?,0,0,2026-04-08_00h46.05.382,4_calibr_sum,2025.1.1,MacIntel,60.97560976,,,,,,,,,,,,,,,,,,,,,,,,,,,,,,,,,,,,,,,,0.19,0.20,left,0.5,0.20,-0.3,-0.2,0.3,0.2,30,15,1.5,,,,,,26.4953,26.6289,right,0,0.1184,,26.629,26.9288,13,0.136575758,0.047871261,0,32,32,32,1,,,,,,,,,,,,,,,,,,,
,,,,,test_osf_4?,0,0,2026-04-08_00h46.05.382,4_calibr_sum,2025.1.1,MacIntel,60.97560976,,,,,,,,,,,,,,,,,,,,,,,,,,,,,,,,,,,,,,,,0.20,0.21,left,0.15,0.6,-0.3,0.21,0.3,0.18,6,47,1,,,,,,26.9296,27.0454,left,1,0.1081,,27.046,27.3454,14,0.135738235,0.047406788,0,33,33,33,1,,,,,,,,,,,,,,,,,,,
,,,,,test_osf_4?,0,0,2026-04-08_00h46.05.382,4_calibr_sum,2025.1.1,MacIntel,60.97560976,,,,,,,,,,,,,,,,,,,,,,,,,,,,,,,,,,,,,,,,0.19,0.20,right,0.52,0.2,-0.2,0.2,0.2,-0.2,36,10,1.5,,,,,,27.3461,27.4622,right,1,0.1001,,27.4623,27.762,15,0.13472,0.047100354,0,34,34,34,1,,,,,,,,,,,,,,,,,,,
,,,,,test_osf_4?,0,0,2026-04-08_00h46.05.382,4_calibr_sum,2025.1.1,MacIntel,60.97560976,,,,,,,,,,,,,,,,,,,,,,,,,,,,,,,,,,,,,,,,0.24,0.23,left,0.7,0.16,-0.18,0.2,0.18,-0.2,6,47,1.5,,,,,,27.7628,27.8955,left,1,0.1149,,27.8956,28.1955,16,0.134169444,0.046555653,0,35,35,35,1,,,,,,,,,,,,,,,,,,,
,,,,,test_osf_4?,0,0,2026-04-08_00h46.05.382,4_calibr_sum,2025.1.1,MacIntel,60.97560976,,,,,,,,,,,,,,,,,,,,,,,,,,,,,,,,,,,,,,,,0.25,0.24,left,0.8,0.17,-0.18,-0.2,0.18,0.2,25,4,0.6,,,,,,28.1962,28.2956,right,0,0.0829,,28.2966,28.5949,16,0.132783784,0.046668744,0,36,36,36,1,,,,,,,,,,,,,,,,,,,
,,,,,test_osf_4?,0,0,2026-04-08_00h46.05.382,4_calibr_sum,2025.1.1,MacIntel,60.97560976,,,,,,,,,,,,,,,,,,,,,,,,,,,,,,,,,,,,,,,,0.26,0.25,left,0.25,0.25,-0.18,0.21,0.18,0.18,3,45,2.5,,,,,,28.5951,28.745,left,1,0.134,,28.7453,29.0453,17,0.132815789,0.046050999,0,37,37,37,1,,,,,,,,,,,,,,,,,,,
,,,,,test_osf_4?,0,0,2026-04-08_00h46.05.382,4_calibr_sum,2025.1.1,MacIntel,60.97560976,,,,,,,,,,,,,,,,,,,,,,,,,,,,,,,,,,,,,,,,0.27,0.26,left,0.52,0.2,-0.18,0.15,0.18,-0.18,20,4,1,,,,,,29.0461,29.1958,right,0,0.1327,,29.1965,29.4954,17,0.132812821,0.045456771,0,38,38,38,1,,,,,,,,,,,,,,,,,,,
,,,,,test_osf_4?,0,0,2026-04-08_00h46.05.382,4_calibr_sum,2025.1.1,MacIntel,60.97560976,,,,,,,,,,,,,,,,,,,,,,,,,,,,,,,,,,,,,,,,0.23,0.22,left,0.6,0.15,-0.18,-0.2,0.18,0.2,30,15,1.5,,,,,,29.4961,29.5954,left,1,0.0858,,29.596,29.8955,18,0.1316375,0.045481137,0,39,39,39,1,,,,,,,,,,,,,,,,,,,
,,,,,test_osf_4?,0,0,2026-04-08_00h46.05.382,4_calibr_sum,2025.1.1,MacIntel,60.97560976,,,,,,,,,,,,,,,,,,,,,,,,,,,,,,,,,,,,,,,,,,,,,,,,,,,,,,,,,,,,,,,,,,,,,,,,,29.9018,32.7786,6.90541088,2.8736,"[{""rating"":6.905410879629629,""responseTime"":2.8736000000014883}]",0,0,0,0,1,Это было сложно?,,,,,,,,
,,,,,test_osf_4?,0,0,2026-04-08_00h46.05.382,4_calibr_sum,2025.1.1,MacIntel,60.97560976,,,,,,,,,,,,,,,,,,,,,,,,,,,,,,,,,,,,,,,,,,,,,,,,,,,,,,,,,,,,,,,,,,,,,,,,,32.7798,33.1452,6.935503472,0.3569,"[{""rating"":6.935503472222222,""responseTime"":0.3569000000003726}]",0,1,1,1,1,Вы могли контролировать ситуацию?,,,,,,,,
,,,,,test_osf_4?,0,0,2026-04-08_00h46.05.382,4_calibr_sum,2025.1.1,MacIntel,60.97560976,,,,,,,,,,,,,,,,,,,,,,,,,,,,,,,,,,,,,,,,,,,,,,,,,,,,,,,,,,,,,,,,,,,,,,,,,33.1465,33.2785,6.935503472,0.1303,"[{""rating"":6.935503472222222,""responseTime"":0.13030000000074438}]",0,2,2,2,1,Насколько результат зависел от Вас?,,,,,,,,
,,,,,test_osf_4?,0,0,2026-04-08_00h46.05.382,4_calibr_sum,2025.1.1,MacIntel,60.97560976,,,,,,,,,,,,,,,,,,,,,,,,,,,,,,,,,,,,,,,,,,,,,,,,,,,,,,,,,,,,,,,,,,,,,,,,,33.2795,33.4285,6.935503472,0.1474,"[{""rating"":6.935503472222222,""responseTime"":0.1473999999985125}]",0,3,3,3,1,Насколько успешно получалось сравнивать квадраты?,,,,,,,,
,,,,,test_osf_4?,0,0,2026-04-08_00h46.05.382,4_calibr_sum,2025.1.1,MacIntel,60.97560976,,,,,,,,,,,,,,,,,,,,,,,,,,,,,,,,,,,,,,,,,,,,,,,,,,,,,,,,,,,,,,,,,,,,,,,,,33.4295,33.612,6.935503472,0.1739,"[{""rating"":6.935503472222222,""responseTime"":0.17390000000037276}]",0,4,4,4,1,Вы довольны результатом?,,,,,,,,
,,,,,test_osf_4?,0,0,2026-04-08_00h46.05.382,4_calibr_sum,2025.1.1,MacIntel,60.97560976,,,,,,,,,,,,,,,,,,,,,,,,,,,,,,,,,,,,,,,,,,,,,,,,,,,,,,,,,,,,,,,,,,,,,,,,,,,,,,,,,,,,33.6124,34.9124,,,,,,
,,,,,test_osf_4?,0,0,2026-04-08_00h46.05.382,4_calibr_sum,2025.1.1,MacIntel,60.97560976,,,,,,,,,,,,,,,,,,,,,,,,,,,,,,,,,,,,,,,,,,,,,,,,,,,,,,,,,,,,,,,,,,,,,,,,,,,,,,,,,,,,,,,34.9128,38.4967,  ,,
,,,,,test_osf_4?,0,0,2026-04-08_00h46.05.382,4_calibr_sum,2025.1.1,MacIntel,60.97560976,,,,,,,,,,,,,,,,,,,,,,,,,,,,,,,,,,,,,,,,,,,,,,,,,,,,,,,,,,,,,,,,,,,,,,,,,,,,,,,,,,,,,,,,,,38.497,39.4957
